Packet number,Gyroscope X (deg/s),Gyroscope Y (deg/s),Gyroscope Z (deg/s),Accelerometer X (g),Accelerometer Y (g),Accelerometer Z (g),Magnetometer X (G),Magnetometer Y (G),Magnetometer Z (G)
0,-0.1250,-0.0625,0.0625,0.10299134,-0.00917745,0.96363182,15.99951,15.99951,15.11230
2,0.1250,-0.1250,0.1875,0.10503077,-0.00917745,0.96363182,15.99951,15.99951,15.11230
4,0.0625,-0.0625,-0.1250,0.10299134,-0.00815773,0.96567125,15.99951,15.99951,15.11230
6,0.0000,-0.1250,-0.1250,0.10299134,-0.00815773,0.96465148,15.99951,15.99951,15.11230
8,-0.0625,0.0000,-0.1875,0.10401105,-0.01121688,0.96261205,15.99951,15.99951,15.11230
10,0.0000,0.0625,-0.1250,0.10401105,-0.01223659,0.96465148,15.99951,15.99951,15.11230
12,0.1875,0.0000,-0.0625,0.10197162,-0.01121688,0.96363182,15.99951,15.99951,15.11230
14,0.1250,-0.0625,0.0000,0.10197162,-0.01121688,0.96363182,15.99951,15.99951,15.11230
16,0.1250,-0.0625,0.0625,0.10197162,-0.00917745,0.96363182,15.99951,15.99951,15.11230
18,0.0625,-0.0625,0.0625,0.10299134,-0.01019716,0.96669092,15.99951,15.99951,15.11230
20,0.0000,-0.0625,-0.0625,0.10299134,-0.01121688,0.96465148,15.99951,15.99951,15.11230
22,-0.0625,0.1875,-0.1250,0.10299134,-0.00917745,0.96465148,15.99951,15.99951,15.11230
24,0.1250,-0.0625,-0.1875,0.10401105,-0.00917745,0.96261205,15.99951,15.99951,15.11230
26,-0.0625,0.0625,-0.1875,0.10503077,-0.01019716,0.96363182,15.99951,15.99951,15.11230
28,0.1250,-0.2500,0.0625,0.10299134,-0.01121688,0.96465148,15.99951,15.99951,15.11230
30,0.0000,0.0000,-0.0625,0.10197162,-0.00917745,0.96363182,15.99951,15.99951,15.11230
32,0.0625,-0.1250,-0.0625,0.10299134,-0.00917745,0.96669092,15.99951,15.99951,15.11230
34,0.0000,0.0625,-0.1250,0.09993219,-0.01019716,0.96669092,15.99951,15.99951,15.11230
36,0.1250,-0.1875,-0.1250,0.10299134,-0.01223659,0.96363182,15.99951,15.99951,15.11230
38,0.0000,-0.0625,0.0000,0.10299134,-0.00815773,0.96771068,15.99951,15.99951,15.11230
40,0.0000,-0.0625,-0.0625,0.10401105,-0.00917745,0.96159238,15.99951,15.99951,15.11230
42,0.0000,-0.1875,-0.0625,0.10299134,-0.01019716,0.96465148,15.99951,15.99951,15.11230
44,-0.2500,0.3750,-0.5000,0.10299134,-0.00917745,0.96669092,15.99951,15.99951,15.11230
46,-0.1875,0.2500,-0.4375,0.10299134,-0.01121688,0.96057262,15.99951,15.99951,15.11230
48,-0.1875,0.1875,-0.4375,0.10299134,-0.01019716,0.96669092,15.99951,15.99951,15.11230
50,0.0000,0.1250,-0.2500,0.10299134,-0.01121688,0.96669092,15.99951,15.99951,15.11230
52,0.1250,0.0000,-0.0625,0.10503077,-0.01121688,0.96159238,15.99951,15.99951,15.11230
54,0.1875,0.0625,0.0000,0.10299134,-0.01121688,0.96567125,15.99951,15.99951,15.11230
56,0.1875,-0.1250,0.4375,0.10299134,-0.01019716,0.96465148,15.99951,15.99951,15.11230
58,0.0000,0.1875,0.3750,0.10299134,-0.00713801,0.96363182,15.99951,15.99951,15.11230
60,-0.1875,0.4375,0.0000,0.10299134,-0.00917745,0.96465148,15.99951,15.99951,15.11230
62,-0.1875,0.3125,0.0625,0.10197162,-0.00815773,0.96567125,15.99951,15.99951,15.11230
64,-0.1875,0.3125,0.1250,0.10197162,-0.00713801,0.96465148,15.99951,15.99951,15.11230
66,-0.3125,0.5000,0.1875,0.11012936,-0.01223659,0.96465148,15.99951,15.99951,15.11230
68,-0.3125,0.7500,0.2500,0.10707019,-0.00917745,0.96159238,15.99951,15.99951,15.11230
70,-0.1250,0.4375,0.4375,0.10095191,-0.01019716,0.96465148,15.99951,15.99951,15.11230
72,-0.4375,0.5625,0.6250,0.10605049,-0.03059149,0.96159238,15.99951,15.99951,15.11230
74,-0.5625,0.4375,0.8750,0.10095191,-0.00815773,0.96261205,15.99951,15.99951,15.11230
76,-0.3750,0.1250,0.7500,0.10197162,0.00407886,0.96567125,15.99951,15.99951,15.11230
78,-0.6250,0.1250,-0.8750,0.09789276,-0.00101972,0.96771068,15.99951,15.99951,15.11230
80,-2.1875,0.8750,-0.5000,0.09177446,-0.01937461,0.96465148,15.99951,15.99951,15.11230
82,-3.3125,1.5625,-2.5000,0.08361673,0.00611830,0.96975011,15.99951,15.99951,15.11230
84,-3.3750,1.3125,-4.0000,0.05098581,-0.02549290,0.96771068,15.99951,15.99951,15.11230
86,-5.2500,-0.3750,-2.3750,0.15193771,-0.00815773,0.96771068,15.99951,15.99951,15.11230
88,-12.4375,1.5000,-6.8750,0.17029260,0.06832099,0.99422330,15.99951,15.99951,15.11230
90,-39.0000,1.4375,2.1875,0.17131232,0.12338566,0.99830217,15.99951,15.99951,15.11230
92,-51.5000,0.3750,4.4375,0.11624765,-0.02243376,0.97688808,15.99951,15.99951,15.11230
94,-63.4375,-1.9375,12.4375,0.11114907,-0.09279418,0.96057262,15.99951,15.99951,15.11230
96,-57.1250,-2.3750,16.8125,0.11726737,-0.06424212,0.95139522,15.99951,15.99951,15.11230
98,-52.8125,-1.3750,9.4375,0.14581941,-0.09789276,0.95445432,15.99951,15.99951,15.11230
100,-70.5625,-0.6250,-1.7500,0.18354891,-0.08463644,0.98606557,15.99951,15.99951,15.11230
102,-87.9375,0.8750,-5.8125,0.15499686,-0.08667589,1.00238096,15.99951,15.99951,15.11230
104,-99.0625,3.2500,-0.0625,0.39361045,-0.18966721,1.18389045,15.99951,15.99951,15.11230
106,-142.3125,131.1250,19.3750,-0.00203943,-0.21719956,1.01767671,15.99951,15.99951,15.11230
108,-115.0625,44.5625,23.7500,0.10605049,-0.51801581,1.50000247,15.99951,15.99951,15.11230
110,-42.8125,23.0000,2.2500,0.12236596,-0.19680522,1.18694972,15.99951,15.99951,15.11230
112,-45.5000,31.8750,-4.1250,0.03976893,-0.20802209,1.16451585,15.99951,15.99951,15.11230
114,-53.3750,34.1875,-9.4375,-0.00611830,-0.22229812,1.11047101,15.99951,15.99951,15.11230
116,-60.5000,25.1875,-7.5000,0.05812382,-0.34160492,1.28076362,15.99951,15.99951,15.11230
118,-44.0000,27.1250,-10.5000,0.02549290,-0.31407258,1.27668476,15.99951,15.99951,15.11230
120,-43.9375,38.8750,-16.6875,-0.05098581,-0.28552053,1.26954662,15.99951,15.99951,15.11230
122,-46.1875,64.6875,-19.8750,-0.03263092,-0.31101343,1.28280294,15.99951,15.99951,15.11230
124,-42.8125,57.5000,-22.8125,-0.08361673,-0.24983046,1.18796932,15.99951,15.99951,15.11230
126,-51.5000,42.6250,-20.5625,-0.11216878,-0.25288963,1.15125954,15.99951,15.99951,15.11230
128,-83.8750,25.5625,-10.5625,-0.12644481,-0.23045585,1.10945117,15.99951,15.99951,15.11230
130,-89.8125,12.5625,-11.5000,-0.08871531,-0.44969482,1.33480846,15.99951,15.99951,15.11230
132,-102.3125,25.9375,-12.8125,-0.14072083,-0.33548662,1.14718067,15.99951,15.99951,15.11230
134,-105.8750,25.0625,-15.3125,-0.13664197,-0.39972875,1.15737795,15.99951,15.99951,15.11230
136,-120.0625,25.5625,-4.9375,-0.06220269,-0.43847799,1.16451585,15.99951,15.99951,15.11230
138,-125.1875,19.1250,-0.0625,-0.11216878,-0.45785255,1.04826819,15.99951,15.99951,15.11230
140,-124.2500,4.9375,6.0625,-0.18456863,-0.50373983,1.00442051,15.99951,15.99951,15.11230
142,-126.4375,4.0625,16.1250,-0.14174055,-0.47008914,0.93507976,15.99951,15.99951,15.11230
144,-107.8750,0.5000,15.5000,-0.02651262,-0.56696219,1.07376110,15.99951,15.99951,15.11230
146,-73.3750,-4.2500,16.1875,-0.05710411,-0.52923274,1.03807115,15.99951,15.99951,15.11230
148,-61.3125,-10.1250,16.0625,-0.08361673,-0.53535099,0.99320354,15.99951,15.99951,15.11230
150,-61.1250,-25.3750,15.8125,-0.10707019,-0.54146928,0.91876430,15.99951,15.99951,15.11230
152,-47.5625,-25.8750,18.0000,-0.09177446,-0.60163259,0.93507976,15.99951,15.99951,15.11230
154,-23.6875,-17.3125,22.2500,-0.09687304,-0.56594252,0.88511371,15.99951,15.99951,15.11230
156,-12.0625,-14.6875,21.4375,-0.10808991,-0.57511992,0.86879825,15.99951,15.99951,15.11230
158,11.8750,-21.3125,12.6875,-0.07851815,-0.51495671,0.75866885,15.99951,15.99951,15.11230
160,28.6250,-30.0625,2.1875,-0.12032650,-0.54350872,0.71889996,15.99951,15.99951,15.11230
162,42.8750,-34.1250,-3.7500,-0.10401105,-0.59653396,0.70462388,15.99951,15.99951,15.11230
164,51.7500,-32.9375,-7.8750,-0.07036042,-0.56288332,0.66995358,15.99951,15.99951,15.11230
166,58.3750,-29.0000,-14.5000,-0.09177446,-0.58531708,0.66587471,15.99951,15.99951,15.11230
168,85.1250,-27.0625,-16.5000,0.02345347,-0.60877056,0.77804346,15.99951,15.99951,15.11230
170,97.5000,-32.6875,-20.0625,-0.02243376,-0.68626899,0.82393064,15.99951,15.99951,15.11230
172,115.8750,-39.8750,-27.3750,-0.05506468,-0.56288332,0.73521537,15.99951,15.99951,15.11230
174,133.1250,-37.8750,-26.1875,-0.05098581,-0.59959316,0.70666332,15.99951,15.99951,15.11230
176,150.5625,-34.8750,-29.1250,-0.02855205,-0.62406630,0.73623509,15.99951,15.99951,15.11230
178,160.0625,-36.5000,-28.8125,-0.01121688,-0.61182971,0.73623509,15.99951,15.99951,15.11230
180,190.8750,-34.1250,-30.2500,-0.00815773,-0.56084389,0.69238729,15.99951,15.99951,15.11230
182,209.5000,-39.3750,-36.4375,-0.16111516,-0.48334546,0.50781865,15.99951,15.99951,15.11230
184,202.6250,-16.6875,-35.5000,-0.13868140,-0.43745822,0.36097953,15.99951,15.99951,15.11230
186,186.2500,-4.9375,-30.5625,0.00407886,-0.36403868,0.43032021,15.99951,15.99951,15.11230
188,173.7500,-8.3750,-31.8750,0.01835489,-0.34670352,0.41094565,15.99951,15.99951,15.11230
190,162.1875,-12.0625,-34.8125,0.02039432,-0.29877686,0.33650634,15.99951,15.99951,15.11230
192,153.9375,-12.5000,-33.9375,0.02651262,-0.27838251,0.32732889,15.99951,15.99951,15.11230
194,121.8125,-11.8750,-25.3125,0.01223659,-0.13256310,0.18252920,15.99951,15.99951,15.11230
196,82.0000,-17.4375,-11.3750,-0.00203943,-0.19374608,0.23249528,15.99951,15.99951,15.11230
198,68.5625,-32.8750,2.7500,0.20700237,-0.10707019,0.25900790,15.99951,15.99951,15.11230
200,59.8125,-36.5000,10.2500,0.19986437,-0.02855205,0.12440538,15.99951,15.99951,15.11230
202,-6.2500,-56.5625,22.0625,0.06832099,-0.03772950,0.06016325,15.99951,15.99951,15.11230
204,3.0000,-43.2500,13.5000,-0.12440538,-0.28755996,0.29061910,15.99951,15.99951,15.11230
206,76.1250,-39.8750,23.1875,-0.12338566,-0.29979658,0.71991963,15.99951,15.99951,15.11230
208,115.6875,17.5625,8.5000,0.38851186,0.32223033,1.37865638,15.99951,15.99951,15.11230
210,15.6250,14.5625,-1.8125,0.14785885,0.05404495,1.09823441,15.99951,15.99951,15.11230
212,-76.6250,-43.4375,8.0625,0.51495671,0.07953786,1.61013183,15.99951,15.99951,15.11230
214,-93.5000,-58.8125,-2.5625,0.66077609,0.25390932,2.06492519,15.99951,15.99951,15.11230
216,-100.3125,-36.3125,-23.8750,0.37729499,-0.14683914,1.41740550,15.99951,15.99951,15.11230
218,-82.9375,-31.2500,14.1875,0.16825317,-0.33140776,1.31339442,15.99951,15.99951,15.11230
220,-39.6250,0.2500,34.6875,0.21821928,-0.29367828,1.29809867,15.99951,15.99951,15.11230
222,-16.0625,18.5625,32.1250,0.18456863,-0.20802209,1.09721469,15.99951,15.99951,15.11230
224,-4.8750,30.7500,25.1250,0.21006152,-0.11930679,1.00849938,15.99951,15.99951,15.11230
226,-13.2500,28.5625,15.5625,0.17029260,-0.05710411,1.01971614,15.99951,15.99951,15.11230
228,-16.5625,29.5000,4.0625,0.21516010,-0.13358281,1.05540633,15.99951,15.99951,15.11230
230,-4.5000,31.0000,-2.0000,0.28144166,-0.13256310,1.11862874,15.99951,15.99951,15.11230
232,12.5000,32.2500,1.1250,0.30081629,-0.14072083,1.08293855,15.99951,15.99951,15.11230
234,20.8125,33.4375,2.5625,0.13562226,-0.12644481,0.99626274,15.99951,15.99951,15.11230
236,12.8125,18.6250,2.9375,0.10910965,-0.03976893,0.98912467,15.99951,15.99951,15.11230
238,-2.6250,9.8125,3.9375,0.12950395,-0.02243376,1.01971614,15.99951,15.99951,15.11230
240,-14.0625,-0.5000,7.3750,0.13664197,-0.11114907,1.05234706,15.99951,15.99951,15.11230
242,1.7500,5.8750,3.3750,0.12848423,-0.12440538,0.99218378,15.99951,15.99951,15.11230
244,5.5000,8.0000,2.0000,0.15703629,-0.11318850,0.97892761,15.99951,15.99951,15.11230
246,2.6250,6.4375,0.3125,0.16111516,-0.09483361,0.99218378,15.99951,15.99951,15.11230
248,5.1875,4.4375,-2.4375,0.09279418,-0.09279418,1.02583456,15.99951,15.99951,15.11230
250,16.6875,7.3125,-5.6875,0.07851815,-0.06424212,0.96363182,15.99951,15.99951,15.11230
252,18.9375,14.1250,-2.6250,0.11828708,-0.03161120,0.97280921,15.99951,15.99951,15.11230
254,11.3750,11.6875,-0.4375,0.08871531,-0.00203943,0.92590227,15.99951,15.99951,15.11230
256,6.5625,8.0000,-1.1875,0.08973503,0.00509858,0.91468544,15.99951,15.99951,15.11230
258,5.0625,4.8125,-6.0625,0.11114907,-0.02651262,0.95547409,15.99951,15.99951,15.11230
260,2.3125,5.9375,-4.5625,0.10910965,-0.00713801,0.93202066,15.99951,15.99951,15.11230
262,-11.1875,5.8125,2.1250,0.07341957,-0.04690694,0.89021215,15.99951,15.99951,15.11230
264,-18.8125,3.8750,4.3125,0.07443929,-0.03874921,0.89735021,15.99951,15.99951,15.11230
266,-23.4375,0.1875,3.1875,0.10197162,-0.03772950,0.92998113,15.99951,15.99951,15.11230
268,-32.5000,-4.3750,4.1250,0.08259701,-0.04078865,0.95751361,15.99951,15.99951,15.11230
270,-45.4375,-5.7500,5.8125,0.09585332,-0.07647871,0.95649375,15.99951,15.99951,15.11230
272,-46.5000,-8.0000,8.3125,0.08055759,-0.10299134,0.93304023,15.99951,15.99951,15.11230
274,-36.9375,-4.5625,8.5000,0.12032650,-0.13154338,0.95751361,15.99951,15.99951,15.11230
276,-30.3750,5.6250,7.6875,0.12032650,-0.08055759,1.02889370,15.99951,15.99951,15.11230
278,-23.5000,8.0625,5.7500,0.12338566,-0.09279418,0.99830217,15.99951,15.99951,15.11230
280,-17.1875,8.0000,3.4375,0.10197162,-0.09891248,0.98912467,15.99951,15.99951,15.11230
282,-26.1250,7.8750,3.2500,0.07239985,-0.05608439,0.94323749,15.99951,15.99951,15.11230
284,-48.7500,10.4375,4.1250,0.06424212,-0.08871531,0.96465148,15.99951,15.99951,15.11230
286,-64.3125,13.0000,3.5000,0.06730127,-0.12542510,0.99830217,15.99951,15.99951,15.11230
288,-72.3125,15.1250,4.9375,0.07341957,-0.15397714,1.02787387,15.99951,15.99951,15.11230
290,-86.5625,18.6250,8.4375,0.05710411,-0.16315459,1.04724860,15.99951,15.99951,15.11230
292,-112.3125,10.1250,2.0625,0.03263092,-0.15907572,1.03705132,15.99951,15.99951,15.11230
294,-140.3750,-5.2500,-5.9375,0.07953786,-0.29061910,1.14616096,15.99951,15.99951,15.11230
296,-157.7500,-7.3125,-6.6875,0.05608439,-0.30387542,1.11658918,15.99951,15.99951,15.11230
298,-174.6875,-6.5625,-2.9375,0.07341957,-0.32936832,1.08599769,15.99951,15.99951,15.11230
300,-207.5000,-6.3750,10.9375,0.08667589,-0.46091170,1.16961455,15.99951,15.99951,15.11230
302,-187.3750,-1.7500,9.3125,0.08667589,-0.55472559,1.24915230,15.99951,15.99951,15.11230
304,-161.3750,14.9375,14.8125,0.12032650,-0.55370588,1.22467923,15.99951,15.99951,15.11230
306,-155.1250,19.5625,27.8750,0.07341957,-0.62814517,1.13698351,15.99951,15.99951,15.11230
308,-150.4375,7.4375,31.1250,0.17743062,-0.72705764,1.26444804,15.99951,15.99951,15.11230
310,-139.6875,11.6250,34.3125,0.11012936,-0.68728871,1.11149060,15.99951,15.99951,15.11230
312,-140.1250,24.6250,48.2500,-0.03059149,-0.69850559,0.97994718,15.99951,15.99951,15.11230
314,-151.2500,46.1250,65.0000,-0.03263092,-0.80863494,1.03195273,15.99951,15.99951,15.11230
316,-152.5625,51.4375,58.6250,0.01121688,-0.67199301,0.93711910,15.99951,15.99951,15.11230
318,-133.5625,6.9375,13.8125,-0.01733517,-0.82393064,0.97994718,15.99951,15.99951,15.11230
320,-127.7500,-11.6875,-5.3750,-0.02243376,-0.84636440,0.96465148,15.99951,15.99951,15.11230
322,-121.3125,-10.8125,-2.3750,0.12236596,-0.93304023,1.02073597,15.99951,15.99951,15.11230
324,-91.6875,-16.0000,-4.6250,0.04894638,-0.89836997,0.93507976,15.99951,15.99951,15.11230
326,-70.3750,-25.3750,-10.5625,-0.03772950,-0.88001508,0.82902927,15.99951,15.99951,15.11230
328,-70.1250,-27.1250,-8.5000,0.04588723,-0.97790784,0.94527702,15.99951,15.99951,15.11230
330,-52.9375,-31.8125,-10.0625,-0.03161120,-0.92182340,0.81781244,15.99951,15.99951,15.11230
332,-45.7500,-35.8125,-13.1250,-0.03365063,-0.88817281,0.72807736,15.99951,15.99951,15.11230
334,-35.8125,-35.6250,-14.3125,-0.04588723,-0.83004903,0.59551429,15.99951,15.99951,15.11230
336,-19.8750,-42.2500,-23.1250,-0.03467035,-0.85554199,0.59041566,15.99951,15.99951,15.11230
338,-5.2500,-43.8750,-25.2500,0.03976893,-0.89531078,0.59449453,15.99951,15.99951,15.11230
340,9.1875,-39.1875,-14.3750,0.09381389,-0.80659551,0.56594252,15.99951,15.99951,15.11230
342,37.7500,-38.6875,-16.2500,0.06832099,-0.78824062,0.55982418,15.99951,15.99951,15.11230
344,55.0000,-39.0000,-21.8750,0.04078865,-0.79537863,0.54248905,15.99951,15.99951,15.11230
346,87.6250,-28.1875,-31.4375,0.08973503,-0.87491645,0.59143543,15.99951,15.99951,15.11230
348,116.3750,-6.6250,-21.5000,0.11522793,-0.81169404,0.52923274,15.99951,15.99951,15.11230
350,135.0625,5.8750,-9.3750,0.04996609,-0.66893382,0.44357652,15.99951,15.99951,15.11230
352,146.7500,0.5625,-12.3750,0.07851815,-0.61896777,0.45275397,15.99951,15.99951,15.11230
354,149.0000,-2.9375,-15.3750,0.06730127,-0.63426346,0.47722716,15.99951,15.99951,15.11230
356,147.9375,-10.6250,-21.5625,0.12032650,-0.69238729,0.56186366,15.99951,15.99951,15.11230
358,135.2500,-23.9375,-28.1250,0.12134624,-0.68117041,0.50781865,15.99951,15.99951,15.11230
360,118.0000,-28.0000,-27.8125,0.12032650,-0.63732261,0.50577926,15.99951,15.99951,15.11230
362,113.6875,-32.7500,-42.3750,0.09075474,-0.58633680,0.50781865,15.99951,15.99951,15.11230
364,109.0625,-38.7500,-51.2500,0.10401105,-0.58021850,0.53229184,15.99951,15.99951,15.11230
366,112.5000,-49.8750,-67.3750,0.24983046,-0.54350872,0.63834238,15.99951,15.99951,15.11230
368,158.8750,-30.1250,-72.3125,0.19578551,-0.55370588,0.58531708,15.99951,15.99951,15.11230
370,181.4375,-4.0625,-50.1250,0.13052366,-0.57410025,0.48538494,15.99951,15.99951,15.11230
372,178.6250,10.3125,-26.3125,0.06526184,-0.43643856,0.38239356,15.99951,15.99951,15.11230
374,158.3125,5.0625,-17.3125,0.01121688,-0.37729499,0.36199924,15.99951,15.99951,15.11230
376,139.0625,-1.2500,-17.7500,0.05710411,-0.43235964,0.40992588,15.99951,15.99951,15.11230
378,124.7500,15.0000,-14.6250,0.14479969,-0.43949766,0.54452848,15.99951,15.99951,15.11230
380,142.0625,-0.1250,-30.9375,0.07036042,-0.38239356,0.43949766,15.99951,15.99951,15.11230
382,126.6250,-17.3750,-34.3750,0.00000000,-0.37831470,0.18456863,15.99951,15.99951,15.11230
384,85.5625,-38.8125,-8.8750,0.01019716,-0.16621374,0.19170664,15.99951,15.99951,15.11230
386,91.6875,-11.0000,-3.2500,0.01325631,-0.18864749,0.29877686,15.99951,15.99951,15.11230
388,120.1875,35.0000,-1.6250,0.24473190,-0.43235964,0.67199301,15.99951,15.99951,15.11230
390,136.2500,54.4375,-1.1250,0.15805601,-0.15295742,0.15703629,15.99951,15.99951,15.11230
392,75.1250,-0.1250,-25.1875,-0.11420822,0.02957177,-0.17335176,15.99951,15.99951,15.11230
394,-15.3750,-37.8125,-30.0625,-0.07749843,-0.23045585,0.44663567,15.99951,15.99951,15.11230
396,-33.3750,10.5625,15.1250,0.29061910,-0.25186991,0.78518147,15.99951,15.99951,15.11230
398,-8.3750,21.9375,22.4375,0.18150948,-0.17437147,0.80353631,15.99951,15.99951,15.11230
400,-2.5625,3.5000,32.4375,0.05506468,-0.11726737,0.78212232,15.99951,15.99951,15.11230
402,-17.4375,-46.3125,37.6875,0.18354891,-0.25798819,1.00849938,15.99951,15.99951,15.11230
404,-7.0625,14.8125,69.7500,0.29163883,-0.23861358,1.28586208,15.99951,15.99951,15.11230
406,16.4375,49.0625,52.4375,0.31101343,-0.09891248,1.09517515,15.99951,15.99951,15.11230
408,16.7500,47.9375,42.1875,0.25900790,-0.15397714,1.13290464,15.99951,15.99951,15.11230
410,11.6250,-2.5000,-7.0000,0.21923899,-0.29265853,1.49490394,15.99951,15.99951,15.11230
412,-7.8125,26.5625,-15.9375,0.16111516,-0.23453471,1.39803087,15.99951,15.99951,15.11230
414,-43.9375,-12.0625,-12.5625,0.10808991,-0.08973503,1.02175569,15.99951,15.99951,15.11230
416,-31.1875,-15.6250,-8.9375,0.32528946,-0.18150948,1.10129356,15.99951,15.99951,15.11230
418,-5.7500,-19.1250,-7.8750,0.54452848,-0.18660806,1.25221145,15.99951,15.99951,15.11230
420,18.0625,-4.1875,-19.2500,0.33650634,-0.26206705,1.21448194,15.99951,15.99951,15.11230
422,-37.5000,-3.7500,-10.9375,0.07953786,-0.14785885,1.05744564,15.99951,15.99951,15.11230
424,-55.1250,17.4375,12.6875,0.46703000,-0.15091799,1.09721469,15.99951,15.99951,15.11230
426,21.3125,-13.5000,-13.4375,0.35180208,-0.08871531,1.02277529,15.99951,15.99951,15.11230
428,41.2500,16.2500,-23.8750,0.13766169,-0.12032650,0.98300647,15.99951,15.99951,15.11230
430,37.0000,25.8125,-19.2500,0.20394322,-0.11522793,0.96261205,15.99951,15.99951,15.11230
432,31.8750,24.8125,-13.3125,0.25492904,-0.15805601,0.99830217,15.99951,15.99951,15.11230
434,17.8125,37.6875,3.3125,0.27124452,-0.15907572,1.00849938,15.99951,15.99951,15.11230
436,7.1875,31.8750,6.4375,0.13970111,-0.08565616,0.93406000,15.99951,15.99951,15.11230
438,-27.4375,2.4375,6.5625,0.14276026,-0.04588723,0.88817281,15.99951,15.99951,15.11230
440,-30.2500,2.0000,7.9375,0.24473190,-0.08973503,0.92590227,15.99951,15.99951,15.11230
442,-4.1875,26.1250,2.2500,0.47722716,-0.19986437,1.39599143,15.99951,15.99951,15.11230
444,40.1250,55.3125,-12.8750,0.09177446,-0.08565616,0.91978406,15.99951,15.99951,15.11230
446,32.0625,45.6875,-11.6250,-0.01121688,-0.03772950,0.74949140,15.99951,15.99951,15.11230
448,-5.0625,28.2500,-4.6875,0.15805601,-0.12644481,0.98912467,15.99951,15.99951,15.11230
450,1.3750,35.2500,-1.1875,0.14989829,-0.10808991,0.86879825,15.99951,15.99951,15.11230
452,-9.4375,24.3750,2.7500,0.01529574,-0.05914354,0.76478714,15.99951,15.99951,15.11230
454,-17.7500,8.3125,0.2500,0.11318850,-0.17743062,1.11251032,15.99951,15.99951,15.11230
456,-4.8125,13.0000,-8.0000,0.06730127,-0.11624765,0.93507976,15.99951,15.99951,15.11230
458,-8.3750,6.0625,-7.8125,0.12338566,-0.13664197,0.96771068,15.99951,15.99951,15.11230
460,7.3750,14.2500,-4.0000,0.18966721,-0.10707019,0.94527702,15.99951,15.99951,15.11230
462,10.2500,17.3125,-3.5000,0.11828708,-0.07341957,0.91774454,15.99951,15.99951,15.11230
464,1.0625,18.6875,-4.3750,0.02549290,-0.07851815,0.96159238,15.99951,15.99951,15.11230
466,-12.1250,4.9375,-8.0625,0.07239985,-0.09177446,0.98810491,15.99951,15.99951,15.11230
468,-14.8750,-2.3750,-10.5625,0.08871531,-0.08565616,0.98096694,15.99951,15.99951,15.11230
470,-16.4375,-9.6250,-11.4375,0.11012936,-0.06526184,0.96057262,15.99951,15.99951,15.11230
472,-19.0625,-0.1250,-4.2500,0.11930679,-0.09687304,0.94935588,15.99951,15.99951,15.11230
474,-36.2500,19.7500,11.0000,0.07851815,-0.09585332,0.91672487,15.99951,15.99951,15.11230
476,-54.6250,17.4375,14.1875,-0.00101972,-0.11012936,0.91060657,15.99951,15.99951,15.11230
478,-68.2500,13.5000,9.5000,-0.00713801,-0.10808991,0.92182340,15.99951,15.99951,15.11230
480,-81.3750,12.8125,7.9375,-0.00305915,-0.15193771,0.95445432,15.99951,15.99951,15.11230
482,-83.8750,13.2500,8.8750,0.00000000,-0.17233204,0.96465148,15.99951,15.99951,15.11230
484,-102.0000,31.8750,28.0000,0.08055759,-0.28959939,0.97484874,15.99951,15.99951,15.11230
486,-143.6875,59.1250,55.3125,0.04180836,-0.29979658,0.98300647,15.99951,15.99951,15.11230
488,-170.4375,82.6250,71.6250,0.05302524,-0.03976893,0.81883211,15.99951,15.99951,15.11230
490,-148.0000,23.6875,19.5625,-0.03976893,-0.01223659,0.78008289,15.99951,15.99951,15.11230
492,-150.8125,-2.3125,6.1875,0.03976893,-0.35690066,1.02481484,15.99951,15.99951,15.11230
494,-157.7500,-1.7500,8.8750,0.02243376,-0.50475950,1.16859471,15.99951,15.99951,15.11230
496,-152.1875,7.8750,9.8750,-0.01427603,-0.45683283,1.11047101,15.99951,15.99951,15.11230
498,-143.3125,31.5625,15.0625,-0.09381389,-0.41400475,1.03603160,15.99951,15.99951,15.11230
500,-149.0625,38.8125,15.8750,-0.03365063,-0.35792038,0.91366567,15.99951,15.99951,15.11230
502,-139.7500,-9.9375,-8.5625,-0.05914354,-0.45887227,0.95139522,15.99951,15.99951,15.11230
504,-138.8750,-27.5000,-13.1875,-0.06220269,-0.66893382,1.07885968,15.99951,15.99951,15.11230
506,-145.6250,-24.1875,2.5625,-0.09585332,-0.75662941,1.11149060,15.99951,15.99951,15.11230
508,-149.0000,-15.5625,13.8750,-0.09687304,-0.84228553,1.14004278,15.99951,15.99951,15.11230
510,-128.9375,25.5625,39.5000,-0.12134624,-0.72297878,1.04724860,15.99951,15.99951,15.11230
512,-104.8125,19.3125,23.2500,-0.20496294,-0.73011679,0.88103485,15.99951,15.99951,15.11230
514,-87.8125,-23.1875,-13.1875,-0.19782495,-0.82291097,0.91468544,15.99951,15.99951,15.11230
516,-52.8125,-51.7500,-47.5000,-0.12542510,-0.86471929,0.90550794,15.99951,15.99951,15.11230
518,-38.2500,-51.0625,-50.5000,-0.13970111,-0.98402605,0.86064043,15.99951,15.99951,15.11230
520,-34.3125,-23.3750,-21.2500,-0.10910965,-0.93711910,0.70258445,15.99951,15.99951,15.11230
522,-60.6250,-8.8750,2.0625,0.02855205,-0.86981792,0.68422956,15.99951,15.99951,15.11230
524,-63.6875,-9.0625,-4.3750,0.06730127,-0.85962085,0.63018460,15.99951,15.99951,15.11230
526,-50.3750,-29.7500,-18.0625,0.05506468,-0.91468544,0.63426346,15.99951,15.99951,15.11230
528,-26.5625,-24.7500,-18.9375,0.07953786,-1.12984549,0.82495040,15.99951,15.99951,15.11230
530,-8.9375,-11.8125,-13.8750,0.04588723,-1.18796932,0.82495040,15.99951,15.99951,15.11230
532,24.7500,11.0625,0.5625,0.00203943,-1.10741174,0.73215622,15.99951,15.99951,15.11230
534,53.8750,13.3750,9.8125,0.02243376,-1.04113018,0.66791415,15.99951,15.99951,15.11230
536,76.0000,3.7500,3.0000,0.05914354,-1.00034165,0.64548034,15.99951,15.99951,15.11230
538,81.0625,-16.0625,-8.9375,-0.03976893,-0.96975011,0.54656791,15.99951,15.99951,15.11230
540,80.6875,-37.3125,-23.7500,0.02141404,-0.95241489,0.49762148,15.99951,15.99951,15.11230
542,80.0000,-35.4375,-23.9375,0.13256310,-0.92794179,0.54044961,15.99951,15.99951,15.11230
544,86.2500,-22.7500,-20.0000,0.16315459,-0.87899532,0.62916488,15.99951,15.99951,15.11230
546,103.6250,-22.3125,-20.3125,0.13460254,-0.82291097,0.56900162,15.99951,15.99951,15.11230
548,106.1250,-35.3750,-25.2500,0.11318850,-0.73215622,0.39870903,15.99951,15.99951,15.11230
550,89.8125,-41.5000,-30.1250,0.19680522,-0.76070828,0.55166645,15.99951,15.99951,15.11230
552,88.5000,-46.5000,-30.1875,0.19578551,-0.71176190,0.60061283,15.99951,15.99951,15.11230
554,95.8750,-49.5000,-25.7500,0.20394322,-0.63936204,0.51903557,15.99951,15.99951,15.11230
556,98.0625,-51.8750,-22.6250,0.25390932,-0.65465779,0.60775084,15.99951,15.99951,15.11230
558,100.3750,-34.3125,-9.2500,0.23045585,-0.63426346,0.61386914,15.99951,15.99951,15.11230
560,102.5625,-32.3750,-4.0000,0.19374608,-0.59857339,0.56696219,15.99951,15.99951,15.11230
562,115.0625,-17.7500,8.7500,0.13358281,-0.59041566,0.57206082,15.99951,15.99951,15.11230
564,131.0000,-29.1250,8.3750,0.17233204,-0.51597638,0.48436517,15.99951,15.99951,15.11230
566,142.8750,-33.7500,4.0000,0.16009545,-0.50068063,0.53025240,15.99951,15.99951,15.11230
568,155.5000,-39.6875,-0.0625,0.08157730,-0.48028631,0.64751977,15.99951,15.99951,15.11230
570,165.3125,-50.6250,-3.2500,0.11012936,-0.44357652,0.63120431,15.99951,15.99951,15.11230
572,216.8750,-53.3750,-9.5625,0.26002762,-0.38749216,0.58021850,15.99951,15.99951,15.11230
574,251.0625,-47.2500,-9.6875,0.33548662,-0.22331783,0.34466409,15.99951,15.99951,15.11230
576,295.8750,-63.4375,-21.6875,0.27022480,-0.32630918,0.49456233,15.99951,15.99951,15.11230
578,327.6250,-41.0625,-38.1250,0.29979658,-0.32834861,0.43439912,15.99951,15.99951,15.11230
580,302.1250,-16.9375,-21.7500,0.18048976,-0.31203315,0.30591485,15.99951,15.99951,15.11230
582,271.5625,-25.0000,-21.5000,0.28246137,-0.09279418,-0.05302524,15.99951,15.99951,15.11230
584,200.0000,-6.4375,-24.6250,0.14785885,-0.02651262,0.32732889,15.99951,15.99951,15.11230
586,207.7500,-2.6875,-56.8750,0.15193771,0.11318850,0.61080999,15.99951,15.99951,15.11230
588,207.0000,18.8750,-63.7500,0.01427603,0.42114276,-0.02855205,15.99951,15.99951,15.11230
590,158.3125,17.7500,-58.2500,-0.03365063,0.52005524,-0.15907572,15.99951,15.99951,15.11230
592,113.2500,39.0000,-54.0000,-0.04588723,0.48538494,0.12950395,15.99951,15.99951,15.11230
594,78.9375,92.6875,-29.6875,0.09687304,0.54350872,0.70870275,15.99951,15.99951,15.11230
596,71.7500,93.3125,-25.6875,0.05404495,0.56594252,0.94119796,15.99951,15.99951,15.11230
598,47.1250,93.5625,-32.6875,0.00407886,0.48130602,0.98504581,15.99951,15.99951,15.11230
600,9.6250,76.8125,-45.5000,0.00509858,0.52413411,1.17369341,15.99951,15.99951,15.11230
602,-7.1250,64.8125,-40.3750,0.03059149,0.53433127,1.30829584,15.99951,15.99951,15.11230
604,-21.5000,44.8125,-22.1250,-0.02447319,0.51495671,1.40720834,15.99951,15.99951,15.11230
606,-26.8125,29.4375,-9.4375,0.05710411,0.49048347,1.21244263,15.99951,15.99951,15.11230
608,-53.3125,22.3750,-6.2500,0.07341957,0.46091170,1.09415542,15.99951,15.99951,15.11230
610,-65.7500,-12.0625,-5.6250,0.05506468,0.37423584,1.24915230,15.99951,15.99951,15.11230
612,-72.6875,-16.3125,0.1250,0.05710411,0.35282180,1.22467923,15.99951,15.99951,15.11230
614,-68.3125,-20.3750,1.7500,0.07341957,0.33446691,1.10231328,15.99951,15.99951,15.11230
616,-77.2500,-32.4375,0.3750,0.11828708,0.29265853,0.91264600,15.99951,15.99951,15.11230
618,-95.0000,-20.3750,-6.1250,0.14581941,0.23351500,1.01257824,15.99951,15.99951,15.11230
620,-54.3750,-13.1250,-7.6875,0.13358281,0.19578551,1.15431869,15.99951,15.99951,15.11230
622,-14.1875,-12.3125,-12.3750,0.07647871,0.24677131,0.88919248,15.99951,15.99951,15.11230
624,-2.0625,-18.5625,-14.3125,0.09993219,0.25186991,0.87083759,15.99951,15.99951,15.11230
626,-8.1250,-14.8125,-12.1250,0.11828708,0.21923899,0.88409395,15.99951,15.99951,15.11230
628,-42.6250,-16.5625,-6.0625,0.13358281,0.16315459,0.94323749,15.99951,15.99951,15.11230
630,-52.7500,-15.8125,-3.5000,0.15499686,0.12440538,0.99932184,15.99951,15.99951,15.11230
632,-45.5625,-4.3750,-3.9375,0.14276026,0.10401105,1.03399229,15.99951,15.99951,15.11230
634,-32.6875,9.9375,-7.4375,0.09993219,0.12746452,0.92896137,15.99951,15.99951,15.11230
636,-21.0000,6.1875,-10.1250,0.09075474,0.13766169,0.90448827,15.99951,15.99951,15.11230
638,6.7500,-12.5625,-18.1875,0.11420822,0.11522793,1.02175569,15.99951,15.99951,15.11230
640,22.2500,-13.4375,-19.6250,0.15295742,0.12950395,0.96159238,15.99951,15.99951,15.11230
642,19.4375,-13.1250,-15.8125,0.17335176,0.14377998,0.89225168,15.99951,15.99951,15.11230
644,2.5000,0.1250,-9.3750,0.14683914,0.15193771,0.88613328,15.99951,15.99951,15.11230
646,-1.0625,4.1875,-8.1250,0.10910965,0.16111516,0.89327135,15.99951,15.99951,15.11230
648,-6.0625,-0.3125,-8.3750,0.05404495,0.19578551,0.83718700,15.99951,15.99951,15.11230
650,-14.8125,-4.5625,-6.6250,0.11216878,0.18456863,0.87695598,15.99951,15.99951,15.11230
652,-25.7500,-5.0000,-4.3125,0.12236596,0.18660806,0.83412790,15.99951,15.99951,15.11230
654,-32.9375,-11.6250,-3.5000,0.14989829,0.14377998,0.95649375,15.99951,15.99951,15.11230
656,-27.6875,-14.6875,-4.0625,0.15601657,0.14072083,0.97586832,15.99951,15.99951,15.11230
658,-17.9375,-11.3750,-3.3750,0.13358281,0.14072083,0.96465148,15.99951,15.99951,15.11230
660,-23.5000,-9.9375,-2.7500,0.17233204,0.17437147,0.94017829,15.99951,15.99951,15.11230
662,-29.3750,-14.3125,-4.3750,0.16009545,0.15499686,0.97280921,15.99951,15.99951,15.11230
664,-17.1875,-17.7500,-7.5000,0.16213488,0.14887857,1.03909075,15.99951,15.99951,15.11230
666,-3.8125,-9.1875,-9.5625,0.13868140,0.16927289,0.96261205,15.99951,15.99951,15.11230
668,-4.1250,-3.0000,-9.0625,0.14072083,0.17131232,0.92590227,15.99951,15.99951,15.11230
670,-25.0625,8.2500,-2.6875,0.18762778,0.18966721,0.93304023,15.99951,15.99951,15.11230
672,-57.3125,25.7500,9.3125,0.19578551,0.16927289,0.96465148,15.99951,15.99951,15.11230
674,-81.5625,21.1250,9.6250,0.08463644,0.17539118,0.85146312,15.99951,15.99951,15.11230
676,-86.5625,13.1250,9.0625,0.09891248,0.15601657,0.94731636,15.99951,15.99951,15.11230
678,-107.3750,16.0625,10.0000,0.10197162,0.15703629,0.95343475,15.99951,15.99951,15.11230
680,-131.1875,22.0625,18.6875,0.14887857,0.07443929,0.96159238,15.99951,15.99951,15.11230
682,-142.6875,46.8125,31.1875,0.17131232,-0.02957177,1.06050479,15.99951,15.99951,15.11230
684,-134.7500,59.5000,32.1875,0.10808991,0.08667589,0.89938964,15.99951,15.99951,15.11230
686,-156.4375,16.3750,26.4375,0.04792666,-0.03161120,0.90346851,15.99951,15.99951,15.11230
688,-169.8750,12.3750,25.5000,0.00000000,-0.10605049,0.96669092,15.99951,15.99951,15.11230
690,-197.8750,32.1875,24.9375,0.07036042,-0.11216878,0.99728240,15.99951,15.99951,15.11230
692,-196.7500,40.1250,26.8750,0.03874921,-0.20394322,1.00951898,15.99951,15.99951,15.11230
694,-184.1250,51.1875,26.8125,0.07545900,-0.37729499,1.18694972,15.99951,15.99951,15.11230
696,-169.0000,46.8125,20.8125,0.05914354,-0.33548662,1.07885968,15.99951,15.99951,15.11230
698,-149.8750,36.1875,9.6875,-0.02957177,-0.37423584,1.09925401,15.99951,15.99951,15.11230
700,-124.5625,38.1250,5.0625,-0.07545900,-0.30387542,0.98198671,15.99951,15.99951,15.11230
702,-125.7500,6.9375,-14.6250,0.01223659,-0.30387542,0.86369972,15.99951,15.99951,15.11230
704,-126.6250,-8.5625,-23.8125,0.01427603,-0.57613968,1.17675244,15.99951,15.99951,15.11230
706,-115.6250,-2.0625,-20.4375,0.02039432,-0.62814517,1.25527071,15.99951,15.99951,15.11230
708,-64.0000,13.7500,-10.1250,0.00203943,-0.56186366,1.15125954,15.99951,15.99951,15.11230
710,-57.8750,3.8750,-9.9375,0.00917745,-0.53841018,0.99116411,15.99951,15.99951,15.11230
712,-51.5625,2.0000,-2.6250,0.07138013,-0.57308049,0.99320354,15.99951,15.99951,15.11230
714,-49.0625,-2.6250,-1.6875,0.03874921,-0.60673112,0.98606557,15.99951,15.99951,15.11230
716,-46.4375,-8.6250,-6.6250,0.02855205,-0.66893382,1.05030775,15.99951,15.99951,15.11230
718,2.0000,-1.8750,-9.6875,0.04384779,-0.66587471,1.13800323,15.99951,15.99951,15.11230
720,45.6875,-8.4375,-15.4375,-0.06118298,-0.63834238,0.95547409,15.99951,15.99951,15.11230
722,68.1250,-25.8125,-14.4375,0.03874921,-0.69034786,0.93202066,15.99951,15.99951,15.11230
724,66.7500,-20.5000,-9.1250,0.03365063,-0.68626899,0.90142908,15.99951,15.99951,15.11230
726,66.0000,-18.6250,-6.6250,0.07953786,-0.70564360,0.99524297,15.99951,15.99951,15.11230
728,78.1875,-7.3750,-0.5000,0.01835489,-0.71686053,1.00340080,15.99951,15.99951,15.11230
730,93.6250,1.3750,16.1875,0.04588723,-0.62304663,0.90550794,15.99951,15.99951,15.11230
732,89.0000,-26.1875,16.5625,0.11318850,-0.47110886,0.73725481,15.99951,15.99951,15.11230
734,78.8125,-44.3750,11.0000,0.12236596,-0.45989203,0.73113651,15.99951,15.99951,15.11230
736,61.7500,-61.8750,-0.7500,0.16723345,-0.59857339,0.87389678,15.99951,15.99951,15.11230
738,68.5625,-41.6875,-0.5000,0.35486123,-0.57919878,1.01971614,15.99951,15.99951,15.11230
740,74.5000,-24.6875,-18.6875,0.32630918,-0.54554815,0.96873035,15.99951,15.99951,15.11230
742,73.8125,-36.4375,-31.8750,0.27532339,-0.49456233,0.93304023,15.99951,15.99951,15.11230
744,76.4375,-40.0000,-23.1875,0.09993219,-0.51699614,0.95343475,15.99951,15.99951,15.11230
746,119.8125,-23.3750,-13.1250,0.10401105,-0.49558205,1.05744564,15.99951,15.99951,15.11230
748,139.3750,-6.0000,-0.6250,0.10401105,-0.42624135,0.66587471,15.99951,15.99951,15.11230
750,85.5000,-15.5625,-0.8750,0.27328395,-0.36607811,0.90244884,15.99951,15.99951,15.11230
752,65.8750,-15.5625,2.6250,0.15703629,-0.36301896,1.01461756,15.99951,15.99951,15.11230
754,61.2500,-19.1875,6.0625,0.18558835,-0.36709783,1.03603160,15.99951,15.99951,15.11230
756,74.0625,-25.6875,13.5000,0.33548662,-0.22535727,0.92488250,15.99951,15.99951,15.11230
758,93.7500,-20.4375,9.3750,0.19578551,-0.24371218,0.89836997,15.99951,15.99951,15.11230
760,91.8125,2.0000,13.2500,0.24371218,-0.21210095,0.87083759,15.99951,15.99951,15.11230
762,85.7500,13.3750,13.0625,0.25288963,-0.18966721,0.82393064,15.99951,15.99951,15.11230
764,55.4375,16.6250,9.3125,0.35588095,-0.09891248,0.83412790,15.99951,15.99951,15.11230
766,45.5625,-10.0000,-3.1250,0.37117671,-0.06424212,0.88511371,15.99951,15.99951,15.11230
768,99.6875,-35.3125,-28.3125,0.29163883,-0.05710411,0.99014444,15.99951,15.99951,15.11230
770,152.1875,-37.0000,-25.1250,0.00611830,-0.17947005,0.86675872,15.99951,15.99951,15.11230
772,140.2500,-5.3750,8.5625,0.03365063,-0.13970111,0.83004903,15.99951,15.99951,15.11230
774,133.5000,15.9375,18.3750,0.13358281,-0.03467035,0.75153083,15.99951,15.99951,15.11230
776,61.1250,45.2500,20.0000,0.13256310,0.02957177,0.63324375,15.99951,15.99951,15.11230
778,58.5000,24.1250,13.8125,0.06220269,-0.03670978,0.91060657,15.99951,15.99951,15.11230
780,76.6875,-21.8750,2.2500,0.15091799,0.27532339,0.27634310,15.99951,15.99951,15.11230
782,48.0000,-39.4375,-25.2500,0.16111516,-0.00203943,0.86166019,15.99951,15.99951,15.11230
784,81.1875,-29.3125,-36.6250,0.09891248,-0.07036042,0.98198671,15.99951,15.99951,15.11230
786,99.6250,-18.5625,-31.5625,-0.01223659,-0.16111516,0.95955295,15.99951,15.99951,15.11230
788,126.5625,6.7500,-19.0000,0.07341957,-0.00611830,0.64955921,15.99951,15.99951,15.11230
790,138.0000,19.2500,-14.6250,-0.01937461,0.16825317,0.31203315,15.99951,15.99951,15.11230
792,107.2500,-0.5000,-20.5625,-0.05710411,0.29775714,0.02855205,15.99951,15.99951,15.11230
794,88.8125,-9.7500,-17.9375,0.14887857,0.28857967,0.13358281,15.99951,15.99951,15.11230
796,101.1875,-8.3750,-18.6250,0.24983046,0.38851186,0.00101972,15.99951,15.99951,15.11230
798,58.5625,32.8125,-7.9375,0.09177446,0.44051742,-0.17641090,15.99951,15.99951,15.11230
800,10.6250,43.1250,1.6875,0.02345347,0.57002139,-0.30795428,15.99951,15.99951,15.11230
802,-86.6875,35.2500,9.3750,0.11726737,0.36403868,0.13664197,15.99951,15.99951,15.11230
804,-85.5000,17.1250,-3.8750,0.14785885,0.10503077,1.05948519,15.99951,15.99951,15.11230
806,-15.6250,28.8125,-11.4375,0.06424212,0.01223659,1.22569894,15.99951,15.99951,15.11230
808,-23.1875,38.1250,-0.8125,-0.03874921,0.00305915,0.95037546,15.99951,15.99951,15.11230
810,-69.5625,45.3750,17.7500,0.03874921,0.02957177,1.22671854,15.99951,15.99951,15.11230
812,-45.3750,8.5000,1.1875,0.09585332,-0.03365063,1.51325883,15.99951,15.99951,15.11230
814,-7.7500,-4.2500,-8.5000,0.06118298,-0.01427603,1.35010421,15.99951,15.99951,15.11230
816,-20.1250,28.8125,8.0000,0.14683914,0.16621374,1.13596391,15.99951,15.99951,15.11230
818,-34.3750,42.5000,13.4375,0.01529574,0.11828708,1.12372732,15.99951,15.99951,15.11230
820,-31.5000,17.6250,7.7500,-0.02447319,0.12746452,1.31441426,15.99951,15.99951,15.11230
822,-20.2500,-2.3125,-2.4375,-0.16927289,0.03976893,1.28280294,15.99951,15.99951,15.11230
824,-21.9375,-34.1875,-9.7500,0.12440538,-0.01019716,1.30625653,15.99951,15.99951,15.11230
826,0.0625,-9.8125,-2.6875,0.08463644,-0.00713801,1.45819416,15.99951,15.99951,15.11230
828,19.1875,12.0625,5.5000,0.02141404,0.24167273,0.99728240,15.99951,15.99951,15.11230
830,-9.9375,1.2500,4.4375,-0.00713801,0.33956549,0.73113651,15.99951,15.99951,15.11230
832,-45.9375,-21.0625,-4.0000,-0.05200552,0.01019716,1.33684790,15.99951,15.99951,15.11230
834,3.5000,-26.1875,-4.2500,-0.05200552,-0.08667589,1.40414929,15.99951,15.99951,15.11230
836,49.6875,-10.9375,-1.8750,0.14377998,0.19884466,0.88817281,15.99951,15.99951,15.11230
838,12.3125,22.2500,11.9375,0.04180836,0.27022480,0.63834238,15.99951,15.99951,15.11230
840,-19.3125,31.3750,21.7500,0.14276026,0.26512620,0.75560970,15.99951,15.99951,15.11230
842,-26.3125,21.9375,11.3750,0.13562226,0.13664197,1.09823441,15.99951,15.99951,15.11230
844,7.8750,2.1250,-0.7500,-0.01529574,0.13154338,1.04418933,15.99951,15.99951,15.11230
846,12.5625,-2.2500,5.4375,0.00407886,0.19476579,0.91876430,15.99951,15.99951,15.11230
848,-6.8125,-2.5625,6.5000,0.16723345,0.24677131,0.83412790,15.99951,15.99951,15.11230
850,-18.5000,-2.6250,6.8125,0.17233204,0.22841641,0.92182340,15.99951,15.99951,15.11230
852,-15.0000,-4.0625,3.8750,0.08157730,0.10503077,1.11556947,15.99951,15.99951,15.11230
854,3.1875,-7.2500,7.3750,0.20190379,0.19068693,1.03093302,15.99951,15.99951,15.11230
856,1.9375,-5.8125,-1.6250,0.24269247,0.21414039,0.91978406,15.99951,15.99951,15.11230
858,-3.9375,6.2500,1.1250,0.11114907,0.20496294,0.93813886,15.99951,15.99951,15.11230
860,-12.0000,7.8125,2.6250,0.08463644,0.23861358,0.88511371,15.99951,15.99951,15.11230
862,-14.9375,4.3750,0.5000,0.09177446,0.21719956,0.93304023,15.99951,15.99951,15.11230
864,-18.0625,2.3750,-1.3125,0.15397714,0.09381389,1.08293855,15.99951,15.99951,15.11230
866,4.6250,-0.6875,-9.1875,0.09585332,0.11930679,1.10435259,15.99951,15.99951,15.11230
868,25.0625,-1.6250,-8.2500,0.01019716,0.21719956,0.81067438,15.99951,15.99951,15.11230
870,-2.3750,-2.8750,-3.9375,0.00815773,0.25288963,0.73725481,15.99951,15.99951,15.11230
872,-19.0000,-13.2500,-5.3750,0.08055759,0.24371218,0.86267986,15.99951,15.99951,15.11230
874,-14.9375,-14.6875,-7.5000,0.16621374,0.17233204,0.98912467,15.99951,15.99951,15.11230
876,-5.9375,-0.4375,-5.1250,0.17437147,0.16621374,1.01869642,15.99951,15.99951,15.11230
878,7.1250,5.3750,-8.1875,0.05812382,0.24065301,0.86777849,15.99951,15.99951,15.11230
880,-2.0000,-0.7500,-6.6875,-0.00203943,0.22025871,0.82291097,15.99951,15.99951,15.11230
882,-12.8125,-1.8125,-3.7500,0.05812382,0.21210095,0.85860099,15.99951,15.99951,15.11230
884,-18.3750,0.6875,-3.1875,0.07647871,0.10707019,1.08701742,15.99951,15.99951,15.11230
886,5.1250,3.1875,-2.1250,0.13868140,0.22025871,0.96975011,15.99951,15.99951,15.11230
888,8.5000,-5.0625,-11.8125,0.09381389,0.26512620,0.78722090,15.99951,15.99951,15.11230
890,-13.0000,-4.0625,-8.6250,0.09177446,0.21108124,0.89735021,15.99951,15.99951,15.11230
892,-17.3750,-3.5625,-6.4375,0.16519402,0.14785885,0.99218378,15.99951,15.99951,15.11230
894,-14.4375,4.3125,-6.3125,0.10197162,0.12236596,1.09925401,15.99951,15.99951,15.11230
896,10.3750,7.6875,-8.5625,-0.02141404,0.19986437,0.95037546,15.99951,15.99951,15.11230
898,6.4375,5.7500,-3.0000,0.03569006,0.22535727,0.83310813,15.99951,15.99951,15.11230
900,-19.4375,5.2500,-0.4375,0.16315459,0.21516010,0.96159238,15.99951,15.99951,15.11230
902,-17.1875,0.8125,-5.0625,0.14276026,0.16723345,1.03297257,15.99951,15.99951,15.11230
904,1.0625,-2.5000,-11.0000,0.07138013,0.21719956,0.95751361,15.99951,15.99951,15.11230
906,7.6875,-12.0000,-16.8125,-0.01529574,0.18558835,0.93304023,15.99951,15.99951,15.11230
908,2.0000,-10.3125,-11.6875,-0.01427603,0.18660806,0.91366567,15.99951,15.99951,15.11230
910,-10.7500,-4.1250,-1.5625,0.10095191,0.15499686,0.96567125,15.99951,15.99951,15.11230
912,-3.8125,-2.6250,-9.7500,0.18966721,0.14785885,1.00340080,15.99951,15.99951,15.11230
914,4.8750,0.6250,-11.0625,0.05812382,0.14072083,1.03807115,15.99951,15.99951,15.11230
916,12.3125,-1.0625,-8.1250,0.00000000,0.22127842,0.87287712,15.99951,15.99951,15.11230
918,-1.0000,-4.7500,-1.8125,-0.01427603,0.23555443,0.83004903,15.99951,15.99951,15.11230
920,-6.8125,-7.2500,-1.2500,0.13664197,0.22127842,0.88307418,15.99951,15.99951,15.11230
922,-11.5000,-5.0625,-6.6250,0.14479969,0.16111516,0.99218378,15.99951,15.99951,15.11230
924,0.6875,-5.5000,-9.2500,0.06934070,0.13562226,1.02073597,15.99951,15.99951,15.11230
926,7.8125,-2.2500,-5.7500,-0.01427603,0.14683914,0.94017829,15.99951,15.99951,15.11230
928,2.1250,-0.6250,0.2500,0.01019716,0.17539118,0.90856714,15.99951,15.99951,15.11230
930,-1.8750,-3.5625,-1.1250,0.09993219,0.20598266,0.88817281,15.99951,15.99951,15.11230
932,-3.8750,-4.5000,-1.8125,0.10095191,0.14581941,0.97076988,15.99951,15.99951,15.11230
934,0.6875,0.9375,-3.1250,0.20700237,0.21414039,0.91264600,15.99951,15.99951,15.11230
936,-0.0625,4.6875,-5.9375,0.09585332,0.16621374,0.92692203,15.99951,15.99951,15.11230
938,-3.1875,7.6250,-0.6875,0.03874921,0.15601657,0.95955295,15.99951,15.99951,15.11230
940,0.3750,4.1250,1.6875,0.09177446,0.19476579,0.90856714,15.99951,15.99951,15.11230
942,0.8125,-10.0000,-7.6250,0.03365063,0.13256310,0.96465148,15.99951,15.99951,15.11230
944,1.5625,-8.9375,-2.3750,0.11420822,0.14989829,0.97382898,15.99951,15.99951,15.11230
946,3.2500,-4.1875,-2.0625,0.12848423,0.17233204,0.92896137,15.99951,15.99951,15.11230
948,-2.9375,8.0625,3.5625,0.12644481,0.16825317,0.93100090,15.99951,15.99951,15.11230
950,-3.6250,5.5625,2.4375,0.12338566,0.18558835,0.94935588,15.99951,15.99951,15.11230
952,2.3125,-1.5000,-2.4375,0.10503077,0.17641090,0.94833602,15.99951,15.99951,15.11230
954,1.0625,-1.2500,-1.1250,0.05710411,0.17539118,0.91060657,15.99951,15.99951,15.11230
956,-1.3125,-1.0000,1.1875,0.09891248,0.17947005,0.91264600,15.99951,15.99951,15.11230
958,-7.0625,3.6875,1.1875,0.18048976,0.15397714,0.99320354,15.99951,15.99951,15.11230
960,-1.6875,8.5625,-1.8750,0.10503077,0.16315459,0.97994718,15.99951,15.99951,15.11230
962,6.0625,2.5000,-2.5000,0.04894638,0.16111516,0.92794179,15.99951,15.99951,15.11230
964,0.7500,0.6250,-2.5000,0.12338566,0.19374608,0.88613328,15.99951,15.99951,15.11230
966,-6.1250,0.6875,-2.3125,0.15499686,0.18762778,0.95853319,15.99951,15.99951,15.11230
968,-4.6250,2.9375,-2.0625,0.15397714,0.17233204,0.95037546,15.99951,15.99951,15.11230
970,-4.7500,4.6875,-1.2500,0.01019716,0.13562226,0.97688808,15.99951,15.99951,15.11230
972,-2.8750,-0.0625,3.4375,0.02651262,0.13664197,0.95853319,15.99951,15.99951,15.11230
974,-1.4375,-5.6875,-1.1250,0.16315459,0.14377998,0.98300647,15.99951,15.99951,15.11230
976,0.1250,0.6250,-1.6875,0.15601657,0.16621374,0.98708524,15.99951,15.99951,15.11230
978,3.8125,-0.1250,-2.9375,0.10605049,0.19374608,0.92998113,15.99951,15.99951,15.11230
980,0.5000,-1.4375,-0.8125,0.09075474,0.18762778,0.89531078,15.99951,15.99951,15.11230
982,-9.7500,-2.8125,-4.5000,0.10299134,0.13664197,0.97790784,15.99951,15.99951,15.11230
984,-4.6250,-1.4375,-4.8750,0.12644481,0.13970111,1.02277529,15.99951,15.99951,15.11230
986,5.1875,1.6250,-2.6250,0.03670978,0.14072083,0.96159238,15.99951,15.99951,15.11230
988,4.2500,0.6250,1.8125,0.11522793,0.20598266,0.88409395,15.99951,15.99951,15.11230
990,0.2500,-1.5000,-0.3125,0.13970111,0.19068693,0.88103485,15.99951,15.99951,15.11230
992,-8.8125,-1.6250,-3.5625,0.11012936,0.16111516,0.96567125,15.99951,15.99951,15.11230
994,0.6875,-5.0625,-4.9375,0.07545900,0.13766169,0.99626274,15.99951,15.99951,15.11230
996,7.0625,-3.5625,-3.0625,0.11624765,0.17641090,0.92182340,15.99951,15.99951,15.11230
998,0.0625,1.8125,-0.9375,0.10808991,0.18660806,0.89123191,15.99951,15.99951,15.11230
1000,-4.3125,2.3125,-0.2500,0.10401105,0.17539118,0.92488250,15.99951,15.99951,15.11230
1002,-4.8750,0.5625,-0.1875,0.11828708,0.16111516,0.97994718,15.99951,15.99951,15.11230
1004,5.0000,-6.0000,-5.5625,0.08769559,0.16111516,0.95751361,15.99951,15.99951,15.11230
1006,4.6250,-4.0625,-3.6250,0.12032650,0.21108124,0.86879825,15.99951,15.99951,15.11230
1008,-6.8125,-1.5625,-2.7500,0.13664197,0.20190379,0.87797555,15.99951,15.99951,15.11230
1010,-8.8750,1.4375,-2.1250,0.12032650,0.15907572,0.96669092,15.99951,15.99951,15.11230
1012,-0.4375,2.6875,-1.8125,0.04588723,0.15193771,0.96261205,15.99951,15.99951,15.11230
1014,0.1250,-1.4375,-1.7500,0.09993219,0.17947005,0.91978406,15.99951,15.99951,15.11230
1016,-2.1250,-3.0000,-1.7500,0.09687304,0.16621374,0.93507976,15.99951,15.99951,15.11230
1018,0.9375,-6.2500,-5.7500,0.13256310,0.16927289,0.94527702,15.99951,15.99951,15.11230
1020,2.0000,-4.1250,-7.3125,0.14174055,0.19884466,0.92998113,15.99951,15.99951,15.11230
1022,2.8125,-3.3125,-8.3125,0.10707019,0.20802209,0.91366567,15.99951,15.99951,15.11230
1024,-3.7500,0.4375,-1.9375,0.06832099,0.18048976,0.92182340,15.99951,15.99951,15.11230
1026,-6.8125,3.2500,1.9375,0.10605049,0.16723345,0.96057262,15.99951,15.99951,15.11230
1028,-2.7500,-0.8750,-2.2500,0.12236596,0.15295742,0.98504581,15.99951,15.99951,15.11230
1030,0.7500,-2.6250,-4.3750,0.09585332,0.14887857,0.98504581,15.99951,15.99951,15.11230
1032,6.0625,-6.3750,-5.8750,0.04690694,0.17641090,0.93915863,15.99951,15.99951,15.11230
1034,-0.4375,-2.5625,-1.2500,0.06424212,0.18762778,0.89938964,15.99951,15.99951,15.11230
1036,-7.4375,0.6875,2.1875,0.09891248,0.15397714,0.97790784,15.99951,15.99951,15.11230
1038,-0.6250,2.6250,0.7500,0.11420822,0.14989829,0.99626274,15.99951,15.99951,15.11230
1040,1.3750,0.0000,-1.4375,0.08157730,0.18048976,0.91876430,15.99951,15.99951,15.11230
1042,-0.6875,-2.1875,-1.5000,0.08361673,0.17437147,0.92590227,15.99951,15.99951,15.11230
1044,-2.3750,-0.7500,-0.8750,0.04792666,0.14581941,0.98504581,15.99951,15.99951,15.11230
1046,1.1875,3.1250,3.6875,0.09483361,0.18048976,0.94119796,15.99951,15.99951,15.11230
1048,-3.4375,1.9375,1.8125,0.11726737,0.19884466,0.89429111,15.99951,15.99951,15.11230
1050,-7.8125,0.6250,1.2500,0.10095191,0.17539118,0.91978406,15.99951,15.99951,15.11230
1052,-7.9375,-2.8750,-0.1875,0.13154338,0.13358281,1.03807115,15.99951,15.99951,15.11230
1054,5.8125,-3.1875,-3.9375,0.13664197,0.16111516,1.00034165,15.99951,15.99951,15.11230
1056,4.7500,3.0625,-0.8125,0.06016325,0.18762778,0.88205442,15.99951,15.99951,15.11230
1058,-4.7500,1.5000,2.7500,0.06424212,0.19476579,0.87593622,15.99951,15.99951,15.11230
1060,-12.1250,1.8125,2.5000,0.13766169,0.14785885,0.97688808,15.99951,15.99951,15.11230
1062,-3.5000,-1.2500,-1.0625,0.11420822,0.13460254,1.01869642,15.99951,15.99951,15.11230
1064,3.9375,-2.7500,-3.3125,0.08259701,0.13358281,0.99830217,15.99951,15.99951,15.11230
1066,5.6250,0.6875,-0.6875,0.07545900,0.16723345,0.90550794,15.99951,15.99951,15.11230
1068,-5.0625,-0.2500,0.3125,0.08157730,0.14785885,0.93915863,15.99951,15.99951,15.11230
1070,-1.8750,-0.8125,-0.3750,0.08973503,0.14174055,0.99728240,15.99951,15.99951,15.11230
1072,4.1250,-1.8750,-1.4375,0.07647871,0.16825317,0.92998113,15.99951,15.99951,15.11230
1074,2.3750,-4.0000,-1.1875,0.12134624,0.18150948,0.90754737,15.99951,15.99951,15.11230
1076,-5.0625,-1.2500,-0.2500,0.12134624,0.15397714,0.95853319,15.99951,15.99951,15.11230
1078,-6.3125,3.5000,1.8750,0.09381389,0.12134624,1.01257824,15.99951,15.99951,15.11230
1080,3.3750,-0.8750,-2.2500,0.09279418,0.12542510,1.01053869,15.99951,15.99951,15.11230
1082,9.8125,-0.1250,-2.5625,0.09075474,0.17029260,0.93711910,15.99951,15.99951,15.11230
1084,5.2500,2.7500,0.1250,0.08667589,0.17539118,0.89021215,15.99951,15.99951,15.11230
1086,-4.9375,3.0625,2.6875,0.09891248,0.16315459,0.92080373,15.99951,15.99951,15.11230
1088,-1.4375,0.1875,1.0625,0.10401105,0.16009545,0.97178945,15.99951,15.99951,15.11230
1090,4.3750,-4.4375,-3.7500,0.16009545,0.18558835,0.91570510,15.99951,15.99951,15.11230
1092,-1.3125,-1.4375,-3.2500,0.11522793,0.16825317,0.93711910,15.99951,15.99951,15.11230
1094,-2.0625,0.8125,-2.0000,0.11726737,0.16315459,0.93915863,15.99951,15.99951,15.11230
1096,-1.7500,2.4375,-1.0000,0.05608439,0.13052366,0.96975011,15.99951,15.99951,15.11230
1098,2.5000,2.8125,-0.1875,0.07851815,0.15907572,0.92284317,15.99951,15.99951,15.11230
1100,1.1250,-1.0000,-1.6250,0.08565616,0.17743062,0.92080373,15.99951,15.99951,15.11230
1102,-0.8750,-0.5625,-0.1250,0.07647871,0.15295742,0.94731636,15.99951,15.99951,15.11230
1104,-0.7500,-0.0625,0.7500,0.12848423,0.17233204,0.94119796,15.99951,15.99951,15.11230
1106,-0.1250,0.6250,-0.9375,0.13766169,0.16825317,0.92284317,15.99951,15.99951,15.11230
1108,-1.5000,2.6875,-2.4375,0.08667589,0.16927289,0.93813886,15.99951,15.99951,15.11230
1110,-2.3125,2.3125,0.0625,0.06832099,0.15703629,0.95343475,15.99951,15.99951,15.11230
1112,-3.2500,0.1250,-0.6875,0.09687304,0.14785885,0.95751361,15.99951,15.99951,15.11230
1114,-2.6875,-0.3125,-0.5625,0.10401105,0.14887857,0.97280921,15.99951,15.99951,15.11230
1116,-0.6875,-1.6875,-1.5625,0.14276026,0.16111516,0.97076988,15.99951,15.99951,15.11230
1118,2.7500,-1.3125,-4.3750,0.13256310,0.18252920,0.93304023,15.99951,15.99951,15.11230
1120,-1.8750,-0.0625,-6.2500,0.07545900,0.16519402,0.91774454,15.99951,15.99951,15.11230
1122,-4.4375,2.1250,-1.5625,0.08157730,0.14989829,0.97688808,15.99951,15.99951,15.11230
1124,-1.5000,3.8125,-0.7500,0.09075474,0.16213488,0.93711910,15.99951,15.99951,15.11230
1126,-1.9375,-2.8125,-3.1250,0.05608439,0.14276026,0.96771068,15.99951,15.99951,15.11230
1128,0.1250,-5.4375,-3.3125,0.06424212,0.13766169,0.97892761,15.99951,15.99951,15.11230
1130,1.7500,-3.4375,-1.0000,0.11522793,0.14989829,0.95445432,15.99951,15.99951,15.11230
1132,-0.4375,-0.0625,-1.1250,0.14887857,0.15805601,0.95751361,15.99951,15.99951,15.11230
1134,0.9375,3.7500,-1.9375,0.09177446,0.17335176,0.93100090,15.99951,15.99951,15.11230
1136,-2.0625,1.0625,-0.1875,0.05710411,0.14989829,0.92284317,15.99951,15.99951,15.11230
1138,-4.8750,0.0625,0.0625,0.06322241,0.15193771,0.92998113,15.99951,15.99951,15.11230
1140,-2.5625,-5.0625,-1.7500,0.11318850,0.12440538,1.01461756,15.99951,15.99951,15.11230
1142,5.5000,-3.3750,-2.3125,0.11726737,0.14989829,0.97280921,15.99951,15.99951,15.11230
1144,4.4375,-0.4375,-3.1250,0.10197162,0.20496294,0.84738426,15.99951,15.99951,15.11230
1146,-9.0000,-1.5625,-1.6875,0.08361673,0.19476579,0.86267986,15.99951,15.99951,15.11230
1148,-12.7500,-1.6875,-0.2500,0.05302524,0.12542510,0.95853319,15.99951,15.99951,15.11230
1150,-0.8125,-6.8125,-1.9375,0.09381389,0.08055759,1.07376110,15.99951,15.99951,15.11230
1152,10.6250,-3.0000,-1.0625,0.14887857,0.14581941,0.93406000,15.99951,15.99951,15.11230
1154,4.8750,1.8750,-1.3125,0.12746452,0.19476579,0.88715305,15.99951,15.99951,15.11230
1156,-0.3125,1.7500,-0.5625,0.06934070,0.19578551,0.85452213,15.99951,15.99951,15.11230
1158,-11.5625,0.5625,2.5625,0.07545900,0.12848423,0.94935588,15.99951,15.99951,15.11230
1160,-10.5000,2.3125,3.7500,0.09075474,0.10707019,1.01155853,15.99951,15.99951,15.11230
1162,0.6250,4.5000,0.0000,0.13052366,0.11420822,1.02175569,15.99951,15.99951,15.11230
1164,5.5625,7.1875,-0.5000,0.10197162,0.16213488,0.93100090,15.99951,15.99951,15.11230
1166,0.8125,2.3750,-1.8125,0.02243376,0.16519402,0.91570510,15.99951,15.99951,15.11230
1168,-1.5000,1.1875,0.3125,0.01325631,0.13970111,0.94119796,15.99951,15.99951,15.11230
1170,-4.9375,0.8750,3.6250,0.10910965,0.12440538,0.99014444,15.99951,15.99951,15.11230
1172,2.0625,-0.8125,0.1250,0.14479969,0.13154338,0.99626274,15.99951,15.99951,15.11230
1174,7.0625,-4.1875,-2.5625,0.08361673,0.14174055,0.95955295,15.99951,15.99951,15.11230
1176,1.3750,-0.7500,1.2500,0.08667589,0.14377998,0.93406000,15.99951,15.99951,15.11230
1178,0.0625,0.6250,-0.2500,0.13358281,0.16723345,0.94323749,15.99951,15.99951,15.11230
1180,-0.9375,1.9375,1.1250,0.11114907,0.16111516,0.94017829,15.99951,15.99951,15.11230
1182,-1.7500,0.4375,-1.0625,0.09585332,0.14785885,0.93507976,15.99951,15.99951,15.11230
1184,-1.0625,0.0000,-0.3125,0.07443929,0.14174055,0.97178945,15.99951,15.99951,15.11230
1186,1.0625,-0.5625,-0.3750,0.11114907,0.14174055,0.96873035,15.99951,15.99951,15.11230
1188,2.9375,0.7500,-1.3750,0.11114907,0.15805601,0.95751361,15.99951,15.99951,15.11230
1190,3.1875,0.1250,-1.5625,0.11114907,0.18660806,0.89531078,15.99951,15.99951,15.11230
1192,-3.0625,-2.7500,-3.3750,0.10707019,0.17641090,0.89735021,15.99951,15.99951,15.11230
1194,-5.5625,-0.5625,-0.8125,0.07138013,0.12542510,0.99932184,15.99951,15.99951,15.11230
1196,2.8125,-3.3750,-2.9375,0.13256310,0.14072083,0.96975011,15.99951,15.99951,15.11230
1198,4.4375,-0.5625,-1.8750,0.07851815,0.13460254,0.96159238,15.99951,15.99951,15.11230
1200,4.3125,1.0625,-0.2500,0.09687304,0.18252920,0.90448827,15.99951,15.99951,15.11230
1202,-4.7500,0.6875,-1.0625,0.08157730,0.15805601,0.91060657,15.99951,15.99951,15.11230
1204,-3.5000,-2.4375,-1.8750,0.09177446,0.14887857,0.97484874,15.99951,15.99951,15.11230
1206,0.5000,-2.2500,-0.9375,0.06628155,0.14377998,0.94527702,15.99951,15.99951,15.11230
1208,-3.0625,-3.5625,0.1875,0.08361673,0.13154338,0.96363182,15.99951,15.99951,15.11230
1210,-1.5625,-1.9375,0.7500,0.10401105,0.12848423,0.99830217,15.99951,15.99951,15.11230
1212,2.7500,2.3125,1.9375,0.11114907,0.14785885,0.97586832,15.99951,15.99951,15.11230
1214,1.7500,-0.0625,-0.8125,0.11012936,0.18660806,0.96975011,15.99951,15.99951,15.11230
1216,-2.3750,1.1250,0.5625,0.08055759,0.17845033,0.96363182,15.99951,15.99951,15.11230
1218,-6.4375,-0.0625,0.6250,0.11114907,0.12440538,1.05030775,15.99951,15.99951,15.11230
1220,1.6875,1.5625,0.3750,0.12236596,0.11726737,1.08905696,15.99951,15.99951,15.11230
1222,7.6875,2.4375,-0.3125,0.10197162,0.16825317,0.99320354,15.99951,15.99951,15.11230
1224,0.1875,-4.5625,-0.7500,0.05608439,0.18558835,0.92896137,15.99951,15.99951,15.11230
1226,-3.7500,-3.8125,1.2500,0.10197162,0.16519402,0.98198671,15.99951,15.99951,15.11230
1228,-2.7500,-1.5000,-1.3125,0.13970111,0.15397714,1.01971614,15.99951,15.99951,15.11230
1230,3.0000,0.7500,-3.5000,0.14989829,0.14072083,1.07478082,15.99951,15.99951,15.11230
1232,9.8125,2.3125,-4.1875,0.11522793,0.15601657,1.01869642,15.99951,15.99951,15.11230
1234,7.6250,-0.6250,-3.1250,0.02651262,0.17845033,0.92182340,15.99951,15.99951,15.11230
1236,-4.9375,-3.3125,1.1875,0.06934070,0.17437147,0.95139522,15.99951,15.99951,15.11230
1238,-4.0625,2.5000,3.0625,0.15703629,0.14377998,1.03501188,15.99951,15.99951,15.11230
1240,1.4375,5.4375,1.0000,0.16417430,0.16417430,1.02073597,15.99951,15.99951,15.11230
1242,2.2500,7.3125,-0.6250,0.08361673,0.18558835,0.95139522,15.99951,15.99951,15.11230
1244,0.9375,5.3750,-0.9375,0.04792666,0.18150948,0.94731636,15.99951,15.99951,15.11230
1246,-4.2500,-1.0625,1.3125,0.06016325,0.16315459,0.98198671,15.99951,15.99951,15.11230
1248,-2.8750,-2.5000,1.7500,0.09177446,0.16111516,0.99830217,15.99951,15.99951,15.11230
1250,-3.6875,1.8125,2.5000,0.14174055,0.14989829,1.00544011,15.99951,15.99951,15.11230
1252,-0.5625,3.3750,0.3750,0.15193771,0.17029260,1.02277529,15.99951,15.99951,15.11230
1254,2.6250,3.1250,-1.6250,0.09993219,0.18048976,0.95649375,15.99951,15.99951,15.11230
1256,-0.1875,-1.9375,-2.6875,0.04894638,0.18150948,0.93915863,15.99951,15.99951,15.11230
1258,-4.8750,-3.8750,0.1875,0.07036042,0.15601657,0.99218378,15.99951,15.99951,15.11230
1260,-3.2500,0.6875,4.2500,0.11420822,0.13970111,1.00747966,15.99951,15.99951,15.11230
1262,-5.4375,8.8125,6.5625,0.16213488,0.13970111,1.01053869,15.99951,15.99951,15.11230
1264,-3.8125,9.1875,3.9375,0.14276026,0.15091799,1.01257824,15.99951,15.99951,15.11230
1266,3.0625,1.0000,-2.3125,0.08157730,0.17641090,0.98504581,15.99951,15.99951,15.11230
1268,3.1250,-2.7500,-3.1250,0.05914354,0.18048976,0.94119796,15.99951,15.99951,15.11230
1270,-5.5000,-2.5625,-0.4375,0.06832099,0.15397714,0.97688808,15.99951,15.99951,15.11230
1272,-7.0625,-1.2500,1.2500,0.11318850,0.13460254,1.03195273,15.99951,15.99951,15.11230
1274,0.9375,2.0625,0.5000,0.13460254,0.13154338,1.02685415,15.99951,15.99951,15.11230
1276,2.0000,2.7500,-0.5625,0.14887857,0.17437147,0.98096694,15.99951,15.99951,15.11230
1278,1.3125,-2.1875,-5.8125,0.07851815,0.15907572,0.99626274,15.99951,15.99951,15.11230
1280,-2.0000,-1.0000,-1.0000,0.04486751,0.16621374,0.97790784,15.99951,15.99951,15.11230
1282,-4.3125,-2.6250,2.1250,0.06832099,0.13664197,1.01257824,15.99951,15.99951,15.11230
1284,-4.3125,-1.6875,1.2500,0.10808991,0.13868140,1.00849938,15.99951,15.99951,15.11230
1286,-3.1250,-0.7500,0.2500,0.11726737,0.12848423,1.06254422,15.99951,15.99951,15.11230
1288,5.2500,2.8750,0.3750,0.12542510,0.16213488,0.98300647,15.99951,15.99951,15.11230
1290,-0.8125,-0.3125,-1.3125,0.06934070,0.15805601,0.96873035,15.99951,15.99951,15.11230
1292,-3.1250,-1.3750,0.9375,0.04996609,0.14785885,0.99524297,15.99951,15.99951,15.11230
1294,-0.3125,-4.9375,0.9375,0.10299134,0.14072083,1.01767671,15.99951,15.99951,15.11230
1296,1.1250,-3.0625,1.2500,0.14683914,0.14683914,1.00951898,15.99951,15.99951,15.11230
1298,0.8125,0.3750,0.8750,0.15907572,0.16927289,0.98504581,15.99951,15.99951,15.11230
1300,-2.2500,1.5000,-2.0000,0.12134624,0.18864749,0.95445432,15.99951,15.99951,15.11230
1302,-3.0625,-1.2500,-3.9375,0.02447319,0.10808991,1.02175569,15.99951,15.99951,15.11230
1304,-4.0000,-1.3750,0.5625,0.04792666,0.12848423,1.02787387,15.99951,15.99951,15.11230
1306,0.5625,-2.3750,1.5625,0.08871531,0.13358281,1.02175569,15.99951,15.99951,15.11230
1308,0.8125,-0.7500,2.0625,0.12542510,0.14785885,0.98606557,15.99951,15.99951,15.11230
1310,-1.6875,2.0625,2.2500,0.16519402,0.16213488,1.00034165,15.99951,15.99951,15.11230
1312,3.3750,1.1250,-2.0000,0.08157730,0.15703629,0.98606557,15.99951,15.99951,15.11230
1314,-1.2500,-0.5625,0.5625,0.06934070,0.13052366,0.99830217,15.99951,15.99951,15.11230
1316,-1.8125,0.6250,2.4375,0.07443929,0.13358281,1.02073597,15.99951,15.99951,15.11230
1318,1.1875,0.6250,2.8125,0.07953786,0.12950395,1.02787387,15.99951,15.99951,15.11230
1320,1.5000,4.1250,2.8125,0.14581941,0.16621374,0.98198671,15.99951,15.99951,15.11230
1322,0.3750,2.6875,1.0000,0.12746452,0.17845033,0.97586832,15.99951,15.99951,15.11230
1324,1.3750,0.6875,-0.8750,0.09585332,0.16825317,0.97484874,15.99951,15.99951,15.11230
1326,0.1250,-0.4375,-1.6250,0.08463644,0.17029260,0.95445432,15.99951,15.99951,15.11230
1328,-4.5000,-2.8750,-1.9375,0.05098581,0.12236596,1.02685415,15.99951,15.99951,15.11230
1330,-4.0625,-1.1875,0.8125,0.09585332,0.12032650,1.05948519,15.99951,15.99951,15.11230
1332,1.5625,1.4375,2.6875,0.14581941,0.15907572,0.99524297,15.99951,15.99951,15.11230
1334,2.1875,1.4375,-1.3125,0.16927289,0.19272636,0.94833602,15.99951,15.99951,15.11230
1336,-1.6875,-2.1875,-5.3750,0.08055759,0.17029260,0.96465148,15.99951,15.99951,15.11230
1338,-3.9375,-0.5000,-3.5625,0.06220269,0.14072083,0.99830217,15.99951,15.99951,15.11230
1340,-4.3125,-0.1250,0.8750,0.04384779,0.11930679,1.04928791,15.99951,15.99951,15.11230
1342,-2.2500,0.1250,2.5000,0.08259701,0.12848423,1.01767671,15.99951,15.99951,15.11230
1344,1.3125,-0.0625,0.0625,0.13256310,0.12542510,1.02583456,15.99951,15.99951,15.11230
1346,2.8750,2.5625,0.1250,0.13358281,0.17539118,0.99014444,15.99951,15.99951,15.11230
1348,4.6875,1.2500,-2.7500,0.10605049,0.18558835,0.93609943,15.99951,15.99951,15.11230
1350,-3.8750,-0.5625,-1.6875,0.06526184,0.14377998,0.99422330,15.99951,15.99951,15.11230
1352,-3.3750,-0.3750,-0.3750,0.07545900,0.14377998,1.01359784,15.99951,15.99951,15.11230
1354,1.3750,-2.8750,-1.3750,0.07647871,0.12746452,1.01155853,15.99951,15.99951,15.11230
1356,-1.5625,0.5000,1.1875,0.12746452,0.13154338,1.01869642,15.99951,15.99951,15.11230
1358,0.1875,1.4375,0.3125,0.11114907,0.15295742,0.99116411,15.99951,15.99951,15.11230
1360,3.2500,1.4375,-1.1250,0.10401105,0.15397714,0.99218378,15.99951,15.99951,15.11230
1362,2.8750,-2.8125,-2.4375,0.07138013,0.17437147,0.96975011,15.99951,15.99951,15.11230
1364,3.0625,-3.2500,-1.3750,0.06016325,0.15295742,0.95955295,15.99951,15.99951,15.11230
1366,0.3125,0.1250,3.2500,0.14072083,0.17335176,0.93609943,15.99951,15.99951,15.11230
1368,-5.8125,1.1875,1.2500,0.14377998,0.14785885,1.03909075,15.99951,15.99951,15.11230
1370,-3.3750,4.7500,1.8750,0.13460254,0.15397714,1.03093302,15.99951,15.99951,15.11230
1372,4.8125,9.4375,1.7500,0.04180836,0.19578551,0.89938964,15.99951,15.99951,15.11230
1374,-5.6875,0.9375,1.0000,0.04894638,0.14785885,0.96975011,15.99951,15.99951,15.11230
1376,-10.8125,-6.0000,-1.1250,0.09483361,0.08871531,1.11760890,15.99951,15.99951,15.11230
1378,8.2500,-0.1250,0.7500,0.09279418,0.10605049,1.07987952,15.99951,15.99951,15.11230
1380,8.8125,4.8125,2.5000,0.11726737,0.18762778,0.91468544,15.99951,15.99951,15.11230
1382,3.9375,7.5000,3.0625,0.11012936,0.18660806,0.93813886,15.99951,15.99951,15.11230
1384,-2.8125,3.5625,1.5625,0.10401105,0.17743062,0.97382898,15.99951,15.99951,15.11230
1386,0.0000,-1.6875,-2.1875,0.05914354,0.15499686,0.96771068,15.99951,15.99951,15.11230
1388,-1.7500,-6.3125,-3.1875,0.06832099,0.12644481,1.03909075,15.99951,15.99951,15.11230
1390,0.4375,0.3125,2.8125,0.12848423,0.14989829,0.99626274,15.99951,15.99951,15.11230
1392,1.4375,2.1875,3.2500,0.14989829,0.17233204,0.97994718,15.99951,15.99951,15.11230
1394,-0.6875,2.1250,0.0625,0.12644481,0.17029260,0.98504581,15.99951,15.99951,15.11230
1396,0.1250,0.1875,-2.2500,0.08259701,0.16111516,0.97892761,15.99951,15.99951,15.11230
1398,-0.6250,-2.6250,-3.3750,0.05200552,0.13970111,1.01053869,15.99951,15.99951,15.11230
1400,-1.6875,2.3125,3.3125,0.07953786,0.13052366,1.00238096,15.99951,15.99951,15.11230
1402,-1.6875,2.3125,3.3125,0.12848423,0.14479969,1.00136125,15.99951,15.99951,15.11230
1404,-1.4375,3.3125,1.6875,0.11216878,0.15091799,1.00136125,15.99951,15.99951,15.11230
1406,0.9375,0.0625,-0.8750,0.09993219,0.15193771,0.98300647,15.99951,15.99951,15.11230
1408,1.0625,-2.5625,-3.2500,0.07545900,0.15499686,1.00034165,15.99951,15.99951,15.11230
1410,3.0000,-1.2500,-3.0000,0.06118298,0.17437147,0.94629659,15.99951,15.99951,15.11230
1412,-5.0625,-0.1875,0.8750,0.05404495,0.09993219,1.03501188,15.99951,15.99951,15.11230
1414,-9.6875,1.1250,2.6250,0.06628155,0.09381389,1.06968224,15.99951,15.99951,15.11230
1416,-1.8750,0.2500,2.2500,0.12440538,0.12236596,1.05234706,15.99951,15.99951,15.11230
1418,9.8125,-0.6250,-1.3125,0.11522793,0.18252920,0.94425716,15.99951,15.99951,15.11230
1420,4.8750,-2.0000,-2.7500,0.06118298,0.16417430,0.92692203,15.99951,15.99951,15.11230
1422,-2.1875,-0.8125,-0.6875,0.06016325,0.15091799,0.98096694,15.99951,15.99951,15.11230
1424,-4.5625,-0.8125,2.0000,0.08667589,0.13256310,1.00951898,15.99951,15.99951,15.11230
1426,0.2500,-1.2500,0.9375,0.13052366,0.14479969,0.99014444,15.99951,15.99951,15.11230
1428,-1.5625,-1.4375,-0.7500,0.11930679,0.13460254,1.04826819,15.99951,15.99951,15.11230
1430,0.7500,3.1250,1.5000,0.13868140,0.17233204,0.98096694,15.99951,15.99951,15.11230
1432,3.8125,-0.1250,-2.2500,0.08565616,0.16927289,0.95547409,15.99951,15.99951,15.11230
1434,1.3125,-0.9375,-1.0000,0.10503077,0.18762778,0.93202066,15.99951,15.99951,15.11230
1436,-1.6875,-1.6875,-1.5000,0.08667589,0.14377998,0.97178945,15.99951,15.99951,15.11230
1438,-8.6875,-0.3750,0.9375,0.11318850,0.12032650,1.02583456,15.99951,15.99951,15.11230
1440,-5.8750,1.8125,0.8750,0.09279418,0.08565616,1.07682037,15.99951,15.99951,15.11230
1442,-1.1875,7.2500,4.5000,0.13256310,0.15499686,0.99830217,15.99951,15.99951,15.11230
1444,6.1250,5.0625,0.6875,0.03772950,0.16111516,0.93304023,15.99951,15.99951,15.11230
1446,-1.6875,-5.8125,-4.5000,0.02039432,0.11420822,1.01461756,15.99951,15.99951,15.11230
1448,-3.5000,-3.7500,1.4375,0.12950395,0.14377998,0.99830217,15.99951,15.99951,15.11230
1450,-1.8750,-1.3125,0.8125,0.13256310,0.12338566,1.02583456,15.99951,15.99951,15.11230
1452,-3.0000,5.2500,2.8125,0.12644481,0.15397714,1.00034165,15.99951,15.99951,15.11230
1454,-1.1875,6.5000,3.2500,0.10197162,0.16519402,0.98300647,15.99951,15.99951,15.11230
1456,3.8750,-6.1250,-2.6875,0.03467035,0.15091799,0.95445432,15.99951,15.99951,15.11230
1458,-4.8750,-7.5000,2.6875,0.14581941,0.13664197,1.01257824,15.99951,15.99951,15.11230
1460,-2.5625,0.6875,2.5000,0.15499686,0.09993219,1.10129356,15.99951,15.99951,15.11230
1462,3.3125,3.3125,1.5625,0.12644481,0.15091799,1.01563727,15.99951,15.99951,15.11230
1464,7.3750,2.1875,-0.7500,0.06832099,0.14581941,0.95955295,15.99951,15.99951,15.11230
1466,-2.8750,0.0625,0.2500,0.07443929,0.14174055,1.00034165,15.99951,15.99951,15.11230
1468,-1.4375,-0.3750,0.3125,0.07851815,0.13868140,1.00442051,15.99951,15.99951,15.11230
1470,3.3125,-3.3125,-0.9375,0.08259701,0.13154338,0.98810491,15.99951,15.99951,15.11230
1472,0.5000,-4.8125,-0.4375,0.10503077,0.13256310,1.02685415,15.99951,15.99951,15.11230
1474,0.5000,-2.8125,1.1250,0.12134624,0.14581941,1.00034165,15.99951,15.99951,15.11230
1476,1.9375,1.1875,2.5000,0.15703629,0.18048976,0.97178945,15.99951,15.99951,15.11230
1478,1.0625,-2.5625,-4.7500,0.04180836,0.11828708,0.99830217,15.99951,15.99951,15.11230
1480,1.0000,-1.4375,-3.2500,0.08259701,0.14887857,0.97892761,15.99951,15.99951,15.11230
1482,-0.3750,-1.3750,0.1250,0.08565616,0.12848423,0.99524297,15.99951,15.99951,15.11230
1484,-2.2500,1.1875,2.2500,0.15499686,0.13970111,1.00136125,15.99951,15.99951,15.11230
1486,-0.3125,5.1875,2.1875,0.17845033,0.15805601,0.97994718,15.99951,15.99951,15.11230
1488,-0.1250,3.9375,-1.3125,0.08055759,0.16825317,0.98198671,15.99951,15.99951,15.11230
1490,4.8125,-1.5000,-4.3125,0.03467035,0.16621374,0.93813886,15.99951,15.99951,15.11230
1492,-0.7500,-2.7500,-1.5625,0.07036042,0.11930679,0.98300647,15.99951,15.99951,15.11230
1494,-11.0000,-0.3125,2.3125,0.14581941,0.11522793,1.08803712,15.99951,15.99951,15.11230
1496,2.6875,4.0000,1.0625,0.15703629,0.15499686,1.01869642,15.99951,15.99951,15.11230
1498,6.5625,3.6250,-1.1875,0.10910965,0.18660806,0.92692203,15.99951,15.99951,15.11230
1500,-0.1250,-1.1250,-3.0625,0.05506468,0.15499686,0.99320354,15.99951,15.99951,15.11230
1502,-3.8125,-3.9375,-0.9375,0.11624765,0.15805601,1.00238096,15.99951,15.99951,15.11230
1504,0.8125,-5.3750,-3.5625,0.11012936,0.13358281,0.99320354,15.99951,15.99951,15.11230
1506,-0.1875,-2.8125,-2.4375,0.10605049,0.14072083,0.98402605,15.99951,15.99951,15.11230
1508,-4.0000,3.1250,0.2500,0.11012936,0.11930679,1.02379500,15.99951,15.99951,15.11230
1510,-5.1250,6.5000,2.5625,0.08463644,0.13562226,1.01563727,15.99951,15.99951,15.11230
1512,2.5625,0.2500,-1.3750,0.05608439,0.13970111,0.97076988,15.99951,15.99951,15.11230
1514,0.0000,-3.2500,-1.8125,0.07851815,0.13970111,0.98606557,15.99951,15.99951,15.11230
1516,-3.9375,-3.1875,-0.5000,0.12848423,0.15091799,1.01665711,15.99951,15.99951,15.11230
1518,-3.1875,-4.1250,-1.1250,0.15601657,0.12950395,1.04316961,15.99951,15.99951,15.11230
1520,-0.0625,2.2500,-0.9375,0.10299134,0.14581941,1.01053869,15.99951,15.99951,15.11230
1522,2.6250,1.8125,-0.7500,0.08055759,0.14887857,0.99218378,15.99951,15.99951,15.11230
1524,2.5000,0.1250,-1.7500,0.07443929,0.14989829,0.97484874,15.99951,15.99951,15.11230
1526,-1.0000,-0.3125,-0.7500,0.08769559,0.13256310,0.98504581,15.99951,15.99951,15.11230
1528,-6.3750,1.0000,-0.5000,0.08871531,0.11114907,1.05132746,15.99951,15.99951,15.11230
1530,-0.6250,2.1875,0.1875,0.08565616,0.12848423,1.02991342,15.99951,15.99951,15.11230
1532,5.6875,-0.0625,-0.7500,0.06934070,0.13460254,0.97076988,15.99951,15.99951,15.11230
1534,-0.4375,-2.7500,-1.7500,0.07851815,0.13358281,1.01257824,15.99951,15.99951,15.11230
1536,0.5625,-2.7500,-0.5000,0.08667589,0.13358281,1.00645983,15.99951,15.99951,15.11230
1538,3.4375,-1.8125,-0.6250,0.10299134,0.15805601,0.96261205,15.99951,15.99951,15.11230
1540,0.6875,1.2500,1.1250,0.08463644,0.14683914,0.94017829,15.99951,15.99951,15.11230
1542,-7.9375,0.3750,2.2500,0.13256310,0.13052366,1.03909075,15.99951,15.99951,15.11230
1544,-6.5625,-1.2500,0.0000,0.10503077,0.10910965,1.07682037,15.99951,15.99951,15.11230
1546,4.6250,-0.9375,-0.3750,0.11216878,0.15499686,0.98096694,15.99951,15.99951,15.11230
1548,5.1250,-0.5625,-0.5625,0.10095191,0.15907572,0.95241489,15.99951,15.99951,15.11230
1550,-1.8750,0.9375,0.8125,0.11216878,0.13562226,0.97790784,15.99951,15.99951,15.11230
1552,-4.2500,1.6875,0.6875,0.10299134,0.12644481,1.00747966,15.99951,15.99951,15.11230
1554,-0.2500,-0.6875,-0.1250,0.12950395,0.13970111,1.00544011,15.99951,15.99951,15.11230
1556,2.6250,-1.0000,-1.5625,0.09483361,0.15703629,0.96159238,15.99951,15.99951,15.11230
1558,1.5625,-2.2500,-2.6875,0.09993219,0.15703629,0.95955295,15.99951,15.99951,15.11230
1560,-1.9375,-1.5625,-1.9375,0.09483361,0.11216878,1.01461756,15.99951,15.99951,15.11230
1562,-4.7500,2.7500,1.1250,0.15397714,0.13970111,1.01053869,15.99951,15.99951,15.11230
1564,-2.1875,2.4375,0.6250,0.10808991,0.11420822,1.02787387,15.99951,15.99951,15.11230
1566,2.5625,-0.1875,-4.3125,0.06118298,0.15397714,0.98606557,15.99951,15.99951,15.11230
1568,5.0625,-2.8750,-2.6875,0.08361673,0.15703629,0.92896137,15.99951,15.99951,15.11230
1570,-8.0000,-3.1875,-0.8125,0.11012936,0.11216878,1.04011046,15.99951,15.99951,15.11230
1572,-9.3125,1.2500,1.8750,0.16519402,0.12950395,1.07580065,15.99951,15.99951,15.11230
1574,7.0625,1.5000,-3.1875,0.07443929,0.13562226,0.98402605,15.99951,15.99951,15.11230
1576,5.1250,-1.1875,-3.6875,0.03161120,0.13970111,0.94935588,15.99951,15.99951,15.11230
1578,-1.3750,-2.0625,-2.0625,0.03976893,0.12950395,0.97178945,15.99951,15.99951,15.11230
1580,-6.7500,-2.3750,1.2500,0.14479969,0.10808991,1.05132746,15.99951,15.99951,15.11230
1582,-3.0000,-1.0625,-0.6250,0.13256310,0.10197162,1.07172179,15.99951,15.99951,15.11230
1584,4.8750,2.1250,-0.9375,0.08769559,0.14377998,0.98606557,15.99951,15.99951,15.11230
1586,6.1250,3.5000,-0.1875,0.04384779,0.15703629,0.94425716,15.99951,15.99951,15.11230
1588,-1.1250,0.6875,1.3750,0.08157730,0.14581941,0.99014444,15.99951,15.99951,15.11230
1590,-4.1875,0.7500,3.7500,0.12542510,0.14989829,1.00442051,15.99951,15.99951,15.11230
1592,-0.8750,-3.5625,0.1875,0.16621374,0.11522793,1.04520905,15.99951,15.99951,15.11230
1594,1.6250,2.6875,-0.7500,0.12746452,0.14887857,1.01053869,15.99951,15.99951,15.11230
1596,4.0000,4.8750,-1.1250,0.05608439,0.14989829,0.96465148,15.99951,15.99951,15.11230
1598,-0.3125,1.3125,-0.8750,0.05608439,0.13868140,0.96261205,15.99951,15.99951,15.11230
1600,-2.6875,0.2500,-0.1250,0.06118298,0.10503077,1.02073597,15.99951,15.99951,15.11230
1602,-4.3750,0.3125,1.8125,0.08667589,0.10197162,1.05438661,15.99951,15.99951,15.11230
1604,3.3125,0.8750,2.2500,0.09585332,0.13766169,0.97586832,15.99951,15.99951,15.11230
1606,3.6875,-1.3750,-1.1250,0.10910965,0.16417430,0.95445432,15.99951,15.99951,15.11230
1608,0.0625,-0.5000,-0.5000,0.12950395,0.17131232,0.95037546,15.99951,15.99951,15.11230
1610,-3.0000,-0.0625,-0.9375,0.07138013,0.13664197,0.99626274,15.99951,15.99951,15.11230
1612,-4.3750,-0.8125,0.5000,0.08667589,0.11828708,1.02481484,15.99951,15.99951,15.11230
1614,0.8125,-0.9375,2.5000,0.12746452,0.12644481,1.00034165,15.99951,15.99951,15.11230
1616,-0.6875,0.6875,2.0000,0.15499686,0.14276026,0.99320354,15.99951,15.99951,15.11230
1618,-1.6875,2.0625,-0.7500,0.10299134,0.12032650,1.01869642,15.99951,15.99951,15.11230
1620,-0.7500,2.3750,-0.9375,0.09687304,0.13460254,1.00034165,15.99951,15.99951,15.11230
1622,1.4375,-0.6875,-1.6250,0.07239985,0.12950395,0.99218378,15.99951,15.99951,15.11230
1624,0.1875,-0.5625,0.3125,0.11420822,0.13358281,0.99014444,15.99951,15.99951,15.11230
1626,-2.5625,3.4375,1.8125,0.10401105,0.12032650,1.02787387,15.99951,15.99951,15.11230
1628,-0.0625,6.3750,3.5000,0.11624765,0.15499686,0.96975011,15.99951,15.99951,15.11230
1630,2.1250,7.2500,3.3125,0.11726737,0.15703629,0.95853319,15.99951,15.99951,15.11230
1632,-2.3750,3.0625,-0.2500,0.11726737,0.14276026,0.99728240,15.99951,15.99951,15.11230
1634,-1.4375,1.3750,-1.8125,0.08259701,0.13460254,1.00747966,15.99951,15.99951,15.11230
1636,1.3750,2.0625,-1.2500,0.08259701,0.12032650,0.99524297,15.99951,15.99951,15.11230
1638,-3.0625,3.8750,0.9375,0.04792666,0.10808991,1.03399229,15.99951,15.99951,15.11230
1640,-2.8125,0.5000,1.1875,0.08463644,0.10401105,1.05540633,15.99951,15.99951,15.11230
1642,4.8125,1.3125,0.3750,0.10910965,0.14174055,0.97484874,15.99951,15.99951,15.11230
1644,0.6875,3.3750,0.2500,0.10095191,0.13766169,0.99116411,15.99951,15.99951,15.11230
1646,-0.3125,2.3750,-0.7500,0.09075474,0.15091799,0.99830217,15.99951,15.99951,15.11230
1648,2.0625,-0.0625,-2.5000,0.06016325,0.12644481,0.99116411,15.99951,15.99951,15.11230
1650,0.2500,-1.4375,-1.8750,0.05098581,0.11420822,1.01155853,15.99951,15.99951,15.11230
1652,-0.5625,0.8750,0.8750,0.07138013,0.12032650,1.01359784,15.99951,15.99951,15.11230
1654,0.4375,2.0625,2.5000,0.13052366,0.12848423,1.01869642,15.99951,15.99951,15.11230
1656,1.5000,4.0625,1.6875,0.15295742,0.17437147,0.98810491,15.99951,15.99951,15.11230
1658,3.2500,2.1250,-0.9375,0.09789276,0.15295742,0.97586832,15.99951,15.99951,15.11230
1660,3.6250,-1.0625,-4.6875,0.03569006,0.14581941,0.97076988,15.99951,15.99951,15.11230
1662,-1.3750,-0.9375,-0.7500,0.04078865,0.12032650,1.00340080,15.99951,15.99951,15.11230
1664,-2.6875,-0.3125,3.3125,0.10401105,0.11828708,1.01359784,15.99951,15.99951,15.11230
1666,-1.3750,1.5625,2.3125,0.11726737,0.11930679,1.02277529,15.99951,15.99951,15.11230
1668,3.6875,2.3750,0.0625,0.10707019,0.14072083,1.00136125,15.99951,15.99951,15.11230
1670,5.0625,-0.6250,-2.0000,0.03670978,0.13664197,0.96669092,15.99951,15.99951,15.11230
1672,-0.3750,-1.5000,0.5625,0.05914354,0.14072083,0.99320354,15.99951,15.99951,15.11230
1674,-2.8750,-1.5000,2.8750,0.08871531,0.12032650,1.03195273,15.99951,15.99951,15.11230
1676,0.5625,-1.2500,2.5000,0.12848423,0.12746452,1.01257824,15.99951,15.99951,15.11230
1678,1.9375,-0.8750,-0.5000,0.13970111,0.14276026,1.02175569,15.99951,15.99951,15.11230
1680,3.2500,1.5625,-0.6250,0.11930679,0.13256310,1.01257824,15.99951,15.99951,15.11230
1682,3.0000,6.2500,0.5625,0.09483361,0.15295742,0.96771068,15.99951,15.99951,15.11230
1684,-0.3750,4.4375,-1.6250,0.02957177,0.14072083,0.98912467,15.99951,15.99951,15.11230
1686,-2.7500,2.1875,0.6250,0.07647871,0.13460254,1.01155853,15.99951,15.99951,15.11230
1688,-2.6875,-1.0000,-0.4375,0.09789276,0.11420822,1.04418933,15.99951,15.99951,15.11230
1690,-1.3125,0.8125,0.6875,0.11420822,0.12032650,1.05846548,15.99951,15.99951,15.11230
1692,5.8750,3.3750,0.4375,0.12338566,0.16723345,0.98096694,15.99951,15.99951,15.11230
1694,8.0000,-0.2500,-4.1875,0.01427603,0.13664197,0.94527702,15.99951,15.99951,15.11230
1696,2.3125,-0.1250,-4.5000,0.02549290,0.14174055,0.95955295,15.99951,15.99951,15.11230
1698,-4.7500,3.3125,1.9375,0.07647871,0.11930679,1.03705132,15.99951,15.99951,15.11230
1700,-2.3125,3.7500,2.3750,0.10299134,0.12644481,1.03297257,15.99951,15.99951,15.11230
1702,2.5625,1.4375,0.0000,0.13460254,0.15907572,1.00951898,15.99951,15.99951,15.11230
1704,6.8125,0.1250,-3.2500,0.09891248,0.16927289,0.95445432,15.99951,15.99951,15.11230
1706,6.3750,1.8750,-4.1875,0.04792666,0.16315459,0.92998113,15.99951,15.99951,15.11230
1708,-4.4375,3.3750,-0.9375,0.03670978,0.12644481,1.00136125,15.99951,15.99951,15.11230
1710,-3.8750,4.5625,2.0625,0.01529574,0.11726737,1.02073597,15.99951,15.99951,15.11230
1712,2.0625,-0.5000,1.6250,0.11318850,0.12950395,0.97178945,15.99951,15.99951,15.11230
1714,-2.5625,-1.5000,-1.6250,0.09381389,0.12236596,1.05438661,15.99951,15.99951,15.11230
1716,4.6250,1.5625,-1.1875,0.09279418,0.16621374,0.97280921,15.99951,15.99951,15.11230
1718,7.9375,1.1250,-2.8750,0.05710411,0.17131232,0.94017829,15.99951,15.99951,15.11230
1720,-1.1875,3.3750,0.0625,0.03059149,0.15295742,0.95037546,15.99951,15.99951,15.11230
1722,-8.6875,1.3750,2.1875,0.05098581,0.12542510,1.02787387,15.99951,15.99951,15.11230
1724,-0.0625,0.0625,0.5625,0.07851815,0.12644481,1.01155853,15.99951,15.99951,15.11230
1726,1.7500,0.5625,0.0000,0.07851815,0.13766169,0.98912467,15.99951,15.99951,15.11230
1728,0.3125,2.0625,0.2500,0.07851815,0.14174055,0.99626274,15.99951,15.99951,15.11230
1730,-0.5000,2.0625,0.4375,0.04078865,0.14683914,0.98300647,15.99951,15.99951,15.11230
1732,-1.6250,0.3750,1.7500,0.07851815,0.15091799,0.97178945,15.99951,15.99951,15.11230
1734,-6.7500,-3.2500,0.1875,0.04894638,0.10910965,1.06254422,15.99951,15.99951,15.11230
1736,-4.0625,-2.5000,1.1875,0.08055759,0.11828708,1.05234706,15.99951,15.99951,15.11230
1738,2.6250,-0.8750,2.8125,0.06628155,0.11420822,1.01767671,15.99951,15.99951,15.11230
1740,-1.3125,2.7500,5.8125,0.09177446,0.10707019,1.05846548,15.99951,15.99951,15.11230
1742,2.3750,6.3750,6.5625,0.10707019,0.14479969,1.01767671,15.99951,15.99951,15.11230
1744,6.5000,3.1875,2.0000,0.10808991,0.17641090,0.94833602,15.99951,15.99951,15.11230
1746,-2.3750,-0.3125,0.0625,0.06628155,0.16519402,0.94323749,15.99951,15.99951,15.11230
1748,-5.7500,-1.5625,0.0000,0.05710411,0.09687304,1.06254422,15.99951,15.99951,15.11230
1750,-1.9375,1.3125,1.8750,0.07138013,0.11216878,1.05234706,15.99951,15.99951,15.11230
1752,4.4375,2.8125,1.5000,0.08361673,0.13562226,1.00544011,15.99951,15.99951,15.11230
1754,2.6875,4.2500,2.0000,0.08667589,0.13562226,1.00034165,15.99951,15.99951,15.11230
1756,2.7500,2.4375,-1.1875,0.08055759,0.16621374,0.96567125,15.99951,15.99951,15.11230
1758,2.5000,-0.2500,-2.8750,0.00917745,0.13970111,0.98300647,15.99951,15.99951,15.11230
1760,-0.8125,-0.1875,1.3750,0.09687304,0.16519402,0.97790784,15.99951,15.99951,15.11230
1762,-1.5625,-0.0625,0.6875,0.10299134,0.14479969,1.00034165,15.99951,15.99951,15.11230
1764,-3.2500,0.1875,-0.2500,0.09483361,0.12134624,1.04316961,15.99951,15.99951,15.11230
1766,0.2500,3.4375,0.5000,0.08667589,0.13766169,1.00849938,15.99951,15.99951,15.11230
1768,4.6875,2.5000,-1.6250,0.02549290,0.14581941,0.95241489,15.99951,15.99951,15.11230
1770,0.9375,0.4375,-0.1250,0.01631546,0.13562226,0.96567125,15.99951,15.99951,15.11230
1772,-4.0000,0.5625,2.6875,0.08769559,0.13562226,0.99728240,15.99951,15.99951,15.11230
1774,-3.0625,-0.2500,0.9375,0.09483361,0.11114907,1.03501188,15.99951,15.99951,15.11230
1776,-0.1250,4.6250,1.8750,0.08973503,0.13664197,1.02073597,15.99951,15.99951,15.11230
1778,2.7500,4.8750,1.2500,0.07749843,0.14785885,0.99218378,15.99951,15.99951,15.11230
1780,2.5625,7.6875,1.8125,0.02855205,0.17947005,0.92896137,15.99951,15.99951,15.11230
1782,-5.6250,1.1875,1.1875,0.02957177,0.13970111,0.99626274,15.99951,15.99951,15.11230
1784,-5.6875,-4.1875,0.1250,0.07138013,0.10503077,1.06764292,15.99951,15.99951,15.11230
1786,3.3750,-2.5625,-0.0625,0.10401105,0.14276026,1.00544011,15.99951,15.99951,15.11230
1788,3.3125,0.9375,-0.8125,0.07749843,0.15601657,0.96771068,15.99951,15.99951,15.11230
1790,-1.2500,4.6875,0.5000,0.06628155,0.16825317,0.96771068,15.99951,15.99951,15.11230
1792,-3.5000,4.9375,1.6875,0.01733517,0.09789276,1.05846548,15.99951,15.99951,15.11230
1794,-2.1250,5.4375,3.3125,0.06322241,0.14989829,1.00034165,15.99951,15.99951,15.11230
1796,3.8125,-5.8125,-3.8750,0.02549290,0.11012936,1.01767671,15.99951,15.99951,15.11230
1798,2.5625,-0.7500,0.6250,0.06322241,0.14683914,0.97484874,15.99951,15.99951,15.11230
1800,-0.1250,1.8125,3.0000,0.07138013,0.14276026,0.98504581,15.99951,15.99951,15.11230
1802,-3.7500,1.7500,2.6250,0.07443929,0.12440538,1.02073597,15.99951,15.99951,15.11230
1804,-0.3125,0.8750,0.6875,0.06016325,0.13766169,1.00034165,15.99951,15.99951,15.11230
1806,3.5625,-1.5000,-1.6875,0.04690694,0.14785885,0.98708524,15.99951,15.99951,15.11230
1808,-0.9375,-0.6875,0.8125,0.10707019,0.14785885,1.00645983,15.99951,15.99951,15.11230
1810,-2.4375,1.7500,0.0625,0.06424212,0.12746452,1.02889370,15.99951,15.99951,15.11230
1812,0.4375,1.7500,-1.0000,0.03874921,0.11420822,1.00238096,15.99951,15.99951,15.11230
1814,-0.0625,1.2500,0.5000,0.01631546,0.11930679,1.00034165,15.99951,15.99951,15.11230
1816,-0.3125,-0.5000,1.1875,0.07545900,0.13154338,1.01971614,15.99951,15.99951,15.11230
1818,2.0000,-0.6875,1.2500,0.09789276,0.16315459,0.98504581,15.99951,15.99951,15.11230
1820,1.1250,-1.9375,-0.8125,0.06730127,0.14479969,0.98912467,15.99951,15.99951,15.11230
1822,-0.8750,-1.4375,-1.0000,0.07851815,0.14276026,0.99830217,15.99951,15.99951,15.11230
1824,-2.1250,0.3125,-0.1250,0.06322241,0.11624765,1.02685415,15.99951,15.99951,15.11230
1826,0.7500,0.3125,-1.0000,0.07545900,0.13970111,1.00544011,15.99951,15.99951,15.11230
1828,4.8125,0.7500,-1.4375,0.07036042,0.15805601,0.93915863,15.99951,15.99951,15.11230
1830,-4.3125,1.6250,-1.5000,0.05404495,0.13562226,0.99422330,15.99951,15.99951,15.11230
1832,-6.4375,1.1250,0.0000,0.06832099,0.10401105,1.06152451,15.99951,15.99951,15.11230
1834,-2.4375,1.8125,-0.0625,0.05812382,0.11114907,1.03705132,15.99951,15.99951,15.11230
1836,3.3125,1.2500,-1.6250,0.03976893,0.14683914,0.98912467,15.99951,15.99951,15.11230
1838,2.7500,-2.0000,-2.8750,0.03976893,0.14072083,0.98096694,15.99951,15.99951,15.11230
1840,-0.7500,1.9375,1.0625,0.05608439,0.14276026,0.97382898,15.99951,15.99951,15.11230
1842,-5.0000,2.0625,1.8750,0.08463644,0.13154338,1.02073597,15.99951,15.99951,15.11230
1844,-5.1875,2.1875,0.8125,0.07036042,0.10910965,1.05132746,15.99951,15.99951,15.11230
1846,-0.1875,7.1875,2.9375,0.09177446,0.15091799,0.98912467,15.99951,15.99951,15.11230
1848,1.7500,2.9375,-1.3750,0.02141404,0.12950395,0.98810491,15.99951,15.99951,15.11230
1850,-2.4375,-3.1875,-4.3750,0.01427603,0.13154338,1.02787387,15.99951,15.99951,15.11230
1852,1.8125,-2.3125,-1.2500,0.02855205,0.14276026,1.01665711,15.99951,15.99951,15.11230
1854,1.5000,0.0000,1.1250,0.06424212,0.14479969,0.98198671,15.99951,15.99951,15.11230
1856,-2.8125,2.7500,2.7500,0.09789276,0.14276026,0.99014444,15.99951,15.99951,15.11230
1858,-2.1250,0.6875,-0.7500,0.08565616,0.12848423,1.02583456,15.99951,15.99951,15.11230
1860,4.3750,0.5625,-3.9375,-0.01529574,0.13664197,0.97790784,15.99951,15.99951,15.11230
1862,0.1875,0.0000,-0.3750,0.02753234,0.13868140,0.99626274,15.99951,15.99951,15.11230
1864,-2.2500,1.0000,1.6250,0.04078865,0.13970111,0.99320354,15.99951,15.99951,15.11230
1866,-4.0625,0.3125,1.6250,0.07138013,0.11726737,1.04113018,15.99951,15.99951,15.11230
1868,-0.1250,0.8125,0.6250,0.07749843,0.13868140,1.01461756,15.99951,15.99951,15.11230
1870,3.3125,-1.9375,-2.5625,0.03670978,0.12542510,1.00340080,15.99951,15.99951,15.11230
1872,0.5000,-3.0625,-1.3125,0.04486751,0.13256310,1.00442051,15.99951,15.99951,15.11230
1874,-0.4375,-2.5000,-1.0000,0.04792666,0.13052366,1.01257824,15.99951,15.99951,15.11230
1876,-2.3125,0.6250,0.8125,0.07239985,0.13052366,1.02277529,15.99951,15.99951,15.11230
1878,-0.6875,1.3125,0.2500,0.04180836,0.11318850,1.04826819,15.99951,15.99951,15.11230
1880,2.4375,2.3750,1.0000,0.04282808,0.12440538,1.01665711,15.99951,15.99951,15.11230
1882,5.5625,0.8125,0.5000,0.05812382,0.15703629,0.94935588,15.99951,15.99951,15.11230
1884,-1.5625,-2.6875,-1.4375,0.05404495,0.13154338,1.01563727,15.99951,15.99951,15.11230
1886,-1.4375,0.8125,0.5625,0.07239985,0.12644481,1.01665711,15.99951,15.99951,15.11230
1888,1.1875,2.5000,0.7500,0.06424212,0.13052366,1.00034165,15.99951,15.99951,15.11230
1890,-0.3125,4.8750,2.0625,0.05200552,0.13256310,0.99116411,15.99951,15.99951,15.11230
1892,-0.7500,2.4375,0.8125,0.02957177,0.13154338,1.01767671,15.99951,15.99951,15.11230
1894,4.3125,-2.4375,-1.3750,0.06322241,0.15907572,0.97178945,15.99951,15.99951,15.11230
1896,3.4375,-1.4375,-1.4375,0.06934070,0.17335176,0.94629659,15.99951,15.99951,15.11230
1898,-3.8750,1.1875,0.1250,0.06526184,0.14887857,0.97688808,15.99951,15.99951,15.11230
1900,-7.1250,0.8125,-0.9375,0.02345347,0.08973503,1.05030775,15.99951,15.99951,15.11230
1902,-2.1875,2.0000,1.0000,0.04894638,0.10401105,1.04316961,15.99951,15.99951,15.11230
1904,4.3750,1.5000,-0.5625,0.03670978,0.12746452,0.99116411,15.99951,15.99951,15.11230
1906,4.4375,1.3750,-1.2500,0.01427603,0.14174055,0.96873035,15.99951,15.99951,15.11230
1908,-2.0000,-0.0625,0.6250,0.03976893,0.16927289,0.94221773,15.99951,15.99951,15.11230
1910,-3.7500,-2.6875,-0.4375,0.02957177,0.11828708,1.00136125,15.99951,15.99951,15.11230
1912,-6.2500,-3.0000,0.4375,0.04078865,0.09789276,1.06254422,15.99951,15.99951,15.11230
1914,1.1250,-1.0625,0.5000,0.06832099,0.11522793,1.01665711,15.99951,15.99951,15.11230
1916,1.4375,-1.3750,-0.6875,0.06730127,0.11930679,1.02583456,15.99951,15.99951,15.11230
1918,2.1250,-0.1250,-1.6250,0.05608439,0.14479969,0.98606557,15.99951,15.99951,15.11230
1920,0.2500,0.0625,-1.0625,0.02957177,0.13358281,0.98402605,15.99951,15.99951,15.11230
1922,-3.8125,-0.1875,1.0000,0.03976893,0.10808991,1.03501188,15.99951,15.99951,15.11230
1924,-0.4375,0.5625,1.6250,0.05302524,0.11114907,1.02481484,15.99951,15.99951,15.11230
1926,1.3750,1.9375,1.5000,0.06628155,0.13256310,1.01359784,15.99951,15.99951,15.11230
1928,0.4375,2.6250,1.9375,0.06526184,0.14683914,0.99626274,15.99951,15.99951,15.11230
1930,0.3750,-1.5625,-1.6250,0.07647871,0.14683914,0.97790784,15.99951,15.99951,15.11230
1932,-2.2500,-1.6250,-1.6875,0.03569006,0.11318850,1.02379500,15.99951,15.99951,15.11230
1934,-3.0625,-0.3750,1.0000,0.06016325,0.10808991,1.04724860,15.99951,15.99951,15.11230
1936,1.7500,-1.5000,-0.6875,0.06118298,0.10401105,1.03195273,15.99951,15.99951,15.11230
1938,2.0625,1.0625,0.3125,0.06424212,0.13052366,1.01563727,15.99951,15.99951,15.11230
1940,2.3750,0.9375,0.1875,0.07545900,0.15295742,0.99014444,15.99951,15.99951,15.11230
1942,2.1250,-0.1875,-1.1875,0.05608439,0.14683914,0.97688808,15.99951,15.99951,15.11230
1944,-1.9375,0.7500,-0.4375,0.03365063,0.11828708,1.01665711,15.99951,15.99951,15.11230
1946,-2.1250,1.7500,2.0000,0.06118298,0.11828708,1.02685415,15.99951,15.99951,15.11230
1948,2.8125,1.8125,0.0625,0.03467035,0.12032650,0.99626274,15.99951,15.99951,15.11230
1950,2.8750,0.6250,-0.0625,0.04588723,0.13256310,0.98504581,15.99951,15.99951,15.11230
1952,0.8125,0.9375,0.4375,0.05506468,0.14276026,0.98402605,15.99951,15.99951,15.11230
1954,-0.8750,0.3750,0.0000,0.06016325,0.12950395,1.00034165,15.99951,15.99951,15.11230
1956,-0.6875,-0.8125,-1.0000,0.06832099,0.12440538,1.01053869,15.99951,15.99951,15.11230
1958,2.0000,-1.7500,-2.5625,0.03263092,0.13460254,0.98300647,15.99951,15.99951,15.11230
1960,0.8125,-1.7500,-1.3125,0.04996609,0.13664197,0.97382898,15.99951,15.99951,15.11230
1962,-1.8125,-0.0625,-0.4375,0.06118298,0.13052366,1.01257824,15.99951,15.99951,15.11230
1964,-2.7500,2.4375,1.6875,0.08667589,0.12950395,1.01971614,15.99951,15.99951,15.11230
1966,0.8750,4.5625,1.0000,0.06934070,0.14887857,0.97892761,15.99951,15.99951,15.11230
1968,0.6250,3.9375,-0.6875,0.03772950,0.15397714,0.95037546,15.99951,15.99951,15.11230
1970,-1.7500,0.1250,-2.1250,0.01121688,0.11318850,1.00136125,15.99951,15.99951,15.11230
1972,-4.5000,-3.6250,-2.6250,0.03365063,0.09993219,1.03093302,15.99951,15.99951,15.11230
1974,-2.8750,-0.5625,-0.4375,0.06424212,0.10299134,1.05336678,15.99951,15.99951,15.11230
1976,0.8750,0.3125,-0.5000,0.06730127,0.11318850,1.03603160,15.99951,15.99951,15.11230
1978,2.9375,2.3125,0.0625,0.03772950,0.13868140,0.98912467,15.99951,15.99951,15.11230
1980,2.1875,-0.2500,-0.6875,0.03569006,0.13154338,0.97790784,15.99951,15.99951,15.11230
1982,-0.3125,-2.1250,-0.3125,0.07647871,0.12644481,0.99932184,15.99951,15.99951,15.11230
1984,-2.0000,-2.4375,-1.5000,0.06526184,0.11930679,1.04011046,15.99951,15.99951,15.11230
1986,1.2500,0.1875,-0.5625,0.09585332,0.14072083,1.00340080,15.99951,15.99951,15.11230
1988,1.0000,2.1875,-2.2500,0.04792666,0.12950395,1.00442051,15.99951,15.99951,15.11230
1990,0.0000,2.2500,-2.1875,0.03059149,0.13052366,1.01155853,15.99951,15.99951,15.11230
1992,2.1250,1.5625,-1.0625,0.01325631,0.13052366,0.99014444,15.99951,15.99951,15.11230
1994,0.0625,0.3750,0.1250,0.05404495,0.13154338,1.01257824,15.99951,15.99951,15.11230
1996,-0.0625,-0.3125,0.3750,0.06832099,0.13052366,1.02175569,15.99951,15.99951,15.11230
1998,2.5625,1.3750,-0.5000,0.05608439,0.14785885,0.98198671,15.99951,15.99951,15.11230
